Time [s],ACC X [m/s^2],ACC Y [m/s^2],ACC Z [m/s^2],GYRO X [rad/s],GYRO Y [rad/s],GYRO Z [rad/s]
0.0,3.0198,-3.2184999999999997,-8.9478,0.282,0.0139,-0.2123
0.010000250006250157,2.9995999999999996,-3.1071999999999997,-9.0407,0.2987,0.0174,-0.21320000000000003
0.020000500012500314,2.8185000000000002,-3.0353999999999997,-8.8976,0.3189,0.0157,-0.21619999999999998
0.030000750018750473,2.8967,-3.074,-8.8202,0.334,0.0138,-0.21689999999999998
0.04000100002500063,2.9791999999999996,-3.1174,-8.8652,0.348,0.0164,-0.2184
0.050001250031250784,2.9612,-2.9565,-8.9505,0.3638,0.0199,-0.2186
0.060001500037500946,2.8382,-2.8603,-8.8839,0.38489999999999996,0.0195,-0.2205
0.0700017500437511,2.8479,-2.8461,-8.8431,0.3975,0.017499999999999998,-0.2212
0.08000200005000126,2.9631999999999996,-2.8694,-8.9072,0.4081,0.0202,-0.2221
0.09000225005625141,2.9711999999999996,-2.7233,-9.0519,0.418,0.0237,-0.22269999999999998
0.10000250006250157,2.8693,-2.6159000000000003,-8.9419,0.43160000000000004,0.0236,-0.22399999999999998
0.11000275006875172,2.7801,-2.6726,-8.7345,0.4431,0.0193,-0.22599999999999998
0.12000300007500189,2.9392,-2.6473,-8.8489,0.4537,0.021599999999999998,-0.22460000000000002
0.13000325008125205,2.9753000000000003,-2.5613,-8.9838,0.4667,0.0265,-0.22629999999999997
0.1400035000875022,2.8395,-2.3639,-8.972199999999999,0.4795,0.0265,-0.2264
0.15000375009375236,2.8053,-2.4252,-8.7745,0.4881,0.0215,-0.2291
0.1600040001000025,2.9066,-2.3024,-8.8929,0.49300000000000005,0.022,-0.2271
0.17000425010625267,2.9577,-2.158,-8.9711,0.4952,0.026,-0.22759999999999997
0.18000450011250282,2.8746,-2.0067999999999997,-8.9207,0.4965,0.0263,-0.22820000000000001
0.19000475011875298,2.8240999999999996,-2.1439,-8.7766,0.4966,0.023,-0.2291
0.20000500012500314,2.8467,-2.1534999999999997,-8.8757,0.4995,0.0242,-0.2271
0.2100052501312533,2.9524999999999997,-2.0931,-8.9542,0.5094,0.0279,-0.2284
0.22000550013750345,2.8245999999999998,-1.8981000000000001,-9.0189,0.5171,0.0289,-0.22829999999999998
0.2300057501437536,2.8191,-1.9973999999999998,-8.8044,0.5214,0.025599999999999998,-0.2301
0.24000600015000378,2.8434999999999997,-1.8623,-8.9023,0.5256000000000001,0.0262,-0.22759999999999997
0.25000625015625394,2.9259,-1.7964,-8.9779,0.5294,0.0291,-0.2285
0.2600065001625041,2.8164000000000002,-1.6556000000000002,-8.991499999999998,0.5332,0.029999999999999995,-0.22820000000000001
0.27000675016875425,2.7288,-1.7215999999999998,-8.7807,0.5357999999999999,0.0259,-0.22929999999999998
0.2800070001750044,2.8059,-1.7271999999999998,-8.7815,0.5375,0.0242,-0.22799999999999998
0.29000725018125456,2.8928,-1.6661,-8.8616,0.5395,0.0265,-0.22799999999999998
0.3000075001875047,2.8249,-1.5024,-8.943,0.5455,0.029599999999999998,-0.22690000000000002
0.31000775019375487,2.7316,-1.4932,-8.8116,0.5488,0.0264,-0.2284
0.320008000200005,2.7744,-1.463,-8.8479,0.5505,0.0241,-0.22659999999999997
0.3300082502062552,2.859,-1.4163999999999999,-8.898399999999999,0.5515,0.0249,-0.2268
0.34000850021250534,2.7746,-1.2975,-8.9226,0.5579,0.0263,-0.22569999999999998
0.3500087502187555,2.7307,-1.2706,-8.7945,0.5608,0.0241,-0.2271
0.36000900022500565,2.7822999999999998,-1.2137,-8.784,0.5616,0.023,-0.22499999999999998
0.3700092502312558,2.8469,-1.1997,-8.8769,0.5602,0.024499999999999997,-0.2248
0.38000950023750596,2.7596,-1.0519,-8.9249,0.5628,0.0257,-0.22390000000000002
0.3900097502437561,2.7015000000000002,-1.0606,-8.826699999999999,0.564,0.0228,-0.2252
0.40001000025000627,2.7175000000000002,-1.0068000000000001,-8.7641,0.565,0.0205,-0.22330000000000003
0.4100102502562564,2.8146999999999998,-0.9815,-8.8391,0.5649000000000001,0.0208,-0.22290000000000001
0.4200105002625066,2.7380999999999998,-0.8462999999999999,-8.8627,0.569,0.021699999999999997,-0.2218
0.43001075026875674,2.7022,-0.8207000000000001,-8.8064,0.5712,0.0202,-0.222
0.4400110002750069,2.73,-0.759,-8.7973,0.5724,0.0178,-0.22039999999999998
0.45001125028125705,2.7608,-0.7498999999999999,-8.8209,0.573,0.0172,-0.2201
0.4600115002875072,2.7325999999999997,-0.6296,-8.883799999999999,0.5755,0.017599999999999998,-0.21879999999999997
0.47001175029375736,2.6689,-0.6198,-8.7988,0.5771,0.0155,-0.21879999999999997
0.48001200030000757,2.7283,-0.5535,-8.8006,0.5785,0.0132,-0.2174
0.4900122503062577,2.7485,-0.5504,-8.7961,0.5781999999999999,0.0125,-0.217
0.5000125003125079,2.715,-0.4248,-8.860999999999999,0.5816,0.013300000000000001,-0.21519999999999997
0.510012750318758,2.7042,-0.36,-8.8206,0.5833999999999999,0.0114,-0.2153
0.5200130003250082,2.6924,-0.3106,-8.7915,0.5837,0.0087,-0.214
0.5300132503312583,2.7323,-0.3144,-8.7808,0.5825999999999999,0.0078,-0.21320000000000003
0.5400135003375085,2.7113,-0.2035,-8.844399999999998,0.5852,0.0082,-0.212
0.5500137503437587,2.7049,-0.1454,-8.840399999999999,0.5873999999999999,0.0073,-0.211
0.5600140003500088,2.6618,-0.12049999999999998,-8.8078,0.5884999999999999,0.004399999999999999,-0.21080000000000002
0.570014250356259,2.7293999999999996,-0.11009999999999999,-8.858,0.5852,0.0033,-0.2098
0.5800145003625091,2.6921,-0.048,-8.8492,0.583,0.0028,-0.2096
0.5900147503687593,2.7109,-0.00019999999999999998,-8.8899,0.5809,0.0033,-0.20809999999999998
0.6000150003750094,2.6475,0.0007999999999999999,-8.857099999999999,0.581,0.0009,-0.20809999999999998
0.6100152503812596,2.7084,0.0947,-8.9308,0.5791,-0.0005,-0.2066
0.6200155003875097,2.6859,0.1352,-8.884400000000001,0.5799,-0.0013,-0.2066
0.6300157503937599,2.7222,0.2531,-8.946299999999999,0.581,-0.0021999999999999997,-0.2049
0.64001600040001,2.6488,0.2509,-8.8532,0.5785,-0.0046,-0.2049
0.6500162504062602,2.6526,0.3039,-8.874899999999998,0.5747,-0.0066,-0.20379999999999998
0.6600165004125104,2.7156,0.32439999999999997,-8.8801,0.5700000000000001,-0.0072,-0.2032
0.6700167504187605,2.7176,0.43559999999999993,-8.9484,0.5682999999999999,-0.0076,-0.20209999999999997
0.6800170004250107,2.6635999999999997,0.4816,-8.8864,0.565,-0.0093,-0.2022
0.6900172504312608,2.655,0.4628,-8.8604,0.5619,-0.012,-0.2023
0.700017500437511,2.7372,0.5156,-8.898200000000001,0.557,-0.012,-0.2009
0.7100177504437611,2.7422999999999997,0.5873999999999999,-9.0597,0.5534,-0.010799999999999999,-0.20149999999999998
0.7200180004500113,2.6654,0.6335999999999999,-9.0054,0.5491,-0.0114,-0.2009
0.7300182504562615,2.6404,0.6227,-8.969000000000001,0.5406,-0.014499999999999999,-0.201
0.7400185004625116,2.7274,0.6997,-9.011099999999999,0.532,-0.014999999999999998,-0.19970000000000002
0.7500187504687618,2.7239,0.7845,-9.0447,0.5243,-0.0152,-0.1998
0.7600190004750119,2.6934,0.89,-9.0077,0.5164,-0.0156,-0.1983
0.7700192504812621,2.6311999999999998,0.8522,-8.8986,0.507,-0.019200000000000002,-0.1993
0.7800195004875122,2.7716999999999996,0.8893,-9.0346,0.4941,-0.0191,-0.19799999999999998
0.7900197504937624,2.6978999999999997,0.9282999999999999,-9.0767,0.48329999999999995,-0.018699999999999998,-0.1987
0.8000200005000125,2.7329,1.0132999999999999,-9.103,0.473,-0.0194,-0.1982
0.8100202505062627,2.6584,1.0092999999999999,-8.9918,0.46169999999999994,-0.022699999999999998,-0.1989
0.8200205005125129,2.7319,1.0042,-9.0007,0.4483,-0.024499999999999997,-0.199
0.830020750518763,2.7595,1.0241,-9.102,0.4354,-0.0234,-0.1992
0.8400210005250132,2.7352999999999996,1.1333,-9.1546,0.4255,-0.0226,-0.1988
0.8500212505312633,2.6887,1.1355,-9.017,0.415,-0.0246,-0.1994
0.8600215005375135,2.7140999999999997,1.1646999999999998,-9.0586,0.40280000000000005,-0.026099999999999998,-0.1986
0.8700217505437636,2.7390999999999996,1.1417,-9.0647,0.39110000000000006,-0.0259,-0.1994
0.8800220005500138,2.7641999999999998,1.2519,-9.237499999999999,0.37789999999999996,-0.024499999999999997,-0.1979
0.8900222505562639,2.6818999999999997,1.2821,-9.0908,0.36679999999999996,-0.0265,-0.1989
0.9000225005625141,2.7269,1.2286,-9.0753,0.35309999999999997,-0.0299,-0.2
0.9100227505687642,2.7726,1.2104,-9.098799999999999,0.33909999999999996,-0.0291,-0.19970000000000002
0.9200230005750144,2.7973,1.2732,-9.2333,0.3283,-0.027,-0.2006
0.9300232505812646,2.6889,1.3232000000000002,-9.1285,0.3179,-0.028499999999999998,-0.20070000000000002
0.9400235005875147,2.7285,1.3056999999999999,-9.0635,0.3056,-0.0324,-0.20179999999999998
0.9500237505937649,2.8221,1.2595,-9.1726,0.2929,-0.032,-0.2022
0.9600240006000151,2.7641999999999998,1.343,-9.2129,0.2842,-0.0304,-0.20179999999999998
0.9700242506062653,2.7616,1.4254,-9.2118,0.2745,-0.0301,-0.20240000000000002
0.9800245006125154,2.6978999999999997,1.333,-9.1037,0.2636,-0.0342,-0.20370000000000002
0.9900247506187656,2.8083,1.3374,-9.1764,0.2515,-0.0346,-0.20279999999999998
1.0000250006250158,2.8316999999999997,1.408,-9.296,0.2408,-0.0319,-0.20400000000000001
1.010025250631266,2.7737000000000003,1.4543,-9.2928,0.23029999999999998,-0.0315,-0.2045
1.020025500637516,2.7310999999999996,1.3809,-9.1303,0.21879999999999997,-0.0354,-0.2059
1.0300257506437662,2.8223000000000003,1.3705,-9.1573,0.20600000000000002,-0.0366,-0.20600000000000002
1.0400260006500164,2.8670999999999998,1.3964,-9.2355,0.1953,-0.0333,-0.20679999999999998
1.0500262506562665,2.8157,1.4888,-9.3605,0.18810000000000002,-0.0314,-0.2069
1.0600265006625167,2.7173,1.4529999999999998,-9.202,0.1782,-0.0353,-0.2085
1.0700267506687668,2.8224,1.4005999999999998,-9.184899999999999,0.1664,-0.0382,-0.2092
1.080027000675017,2.8924,1.3821999999999999,-9.238399999999999,0.1566,-0.0362,-0.2101
1.0900272506812672,2.8173,1.5003,-9.4153,0.14989999999999998,-0.033100000000000004,-0.2097
1.1000275006875173,2.7997,1.4676,-9.2745,0.1419,-0.034499999999999996,-0.2117
1.1100277506937675,2.7879,1.396,-9.200800000000001,0.1311,-0.0388,-0.2123
1.1200280007000176,2.9037,1.4078,-9.3079,0.1213,-0.037,-0.2124
1.1300282507062678,2.8707,1.5152999999999999,-9.4183,0.11230000000000001,-0.0339,-0.21350000000000002
1.140028500712518,2.8301,1.5169,-9.3642,0.10339999999999999,-0.0341,-0.2143
1.150028750718768,2.8137,1.4449999999999998,-9.1999,0.0923,-0.038099999999999995,-0.216
1.1600290007250182,2.9117,1.4470999999999998,-9.2796,0.07919999999999999,-0.037599999999999995,-0.21580000000000002
1.1700292507312684,2.9293,1.468,-9.413599999999999,0.0671,-0.033100000000000004,-0.21689999999999998
1.1800295007375186,2.868,1.5839999999999999,-9.484499999999999,0.0588,-0.032,-0.21719999999999998
1.1900297507437687,2.8052,1.5093,-9.316099999999999,0.0462,-0.0363,-0.21919999999999998
1.2000300007500189,2.8925,1.4705,-9.2935,0.030899999999999997,-0.038099999999999995,-0.21949999999999997
1.210030250756269,2.9692,1.476,-9.374,0.0177,-0.034999999999999996,-0.2208
1.2200305007625192,2.9052000000000002,1.5913,-9.516399999999999,0.0081,-0.0319,-0.2201
1.2300307507687693,2.8518,1.5539,-9.4012,-0.0045000000000000005,-0.0337,-0.2223
1.2400310007750195,2.8922,1.4324,-9.3086,-0.0205,-0.037,-0.22290000000000001
1.2500312507812696,2.97,1.4133,-9.478,-0.0325,-0.0339,-0.2231
1.2600315007875198,2.9667,1.5001,-9.601899999999999,-0.0428,-0.0301,-0.2244
1.27003175079377,2.879,1.4707,-9.517399999999999,-0.05,-0.0314,-0.22499999999999998
1.28003200080002,2.8929,1.4068,-9.3843,-0.0624,-0.0346,-0.22669999999999998
1.2900322508062703,2.9945,1.3105,-9.4605,-0.07579999999999999,-0.0327,-0.2268
1.3000325008125204,2.9372,1.3675,-9.5384,-0.08149999999999999,-0.029300000000000003,-0.2268
1.3100327508187706,2.9068,1.4783,-9.5437,-0.0861,-0.030299999999999997,-0.22859999999999997
1.3200330008250207,2.8876999999999997,1.3597,-9.3882,-0.0992,-0.0334,-0.22959999999999997
1.3300332508312709,3.0026,1.2681,-9.4463,-0.11,-0.032,-0.2298
1.340033500837521,3.0035,1.3228,-9.5238,-0.11800000000000001,-0.0279,-0.2305
1.3500337508437712,2.9579,1.4217,-9.692,-0.123,-0.026600000000000002,-0.23029999999999998
1.3600340008500214,2.8867,1.2215,-9.4706,-0.12899999999999998,-0.029799999999999997,-0.2334
1.3700342508562715,3.0141,1.1536,-9.581299999999999,-0.1354,-0.0289,-0.2322
1.3800345008625217,3.0439999999999996,1.1715,-9.574399999999999,-0.13999999999999999,-0.0254,-0.234
1.3900347508687718,2.9787999999999997,1.3114000000000001,-9.7875,-0.1416,-0.022699999999999998,-0.23379999999999998
1.400035000875022,2.9312,1.2026,-9.5363,-0.1476,-0.0242,-0.23609999999999998
1.4100352508812721,2.9625999999999997,1.0744,-9.470199999999998,-0.15410000000000001,-0.0265,-0.23670000000000002
1.4200355008875223,3.0374999999999996,1.0212,-9.549199999999999,-0.158,-0.0232,-0.23640000000000003
1.4300357508937724,3.0406,1.2123,-9.812800000000001,-0.1576,-0.0191,-0.23600000000000002
1.4400360009000226,3.0023999999999997,1.2068,-9.6044,-0.1549,-0.020900000000000002,-0.23800000000000002
1.4500362509062728,2.9332,1.063,-9.4474,-0.1624,-0.0249,-0.23869999999999997
1.460036500912523,3.1063,0.9708,-9.5627,-0.1697,-0.021599999999999998,-0.2385
1.470036750918773,3.0873,1.1178000000000001,-9.771799999999999,-0.1697,-0.016,-0.23779999999999998
1.4800370009250232,3.0244,1.1991999999999998,-9.7581,-0.1687,-0.0157,-0.2399
1.4900372509312734,2.9318,0.9621,-9.507200000000001,-0.176,-0.021,-0.24169999999999997
1.5000375009375235,3.1199,0.8198,-9.5301,-0.1818,-0.02,-0.24109999999999998
1.5100377509437737,3.1217,1.0245,-9.693999999999999,-0.183,-0.013,-0.2408
1.5200380009500238,3.1008,1.1977,-9.8152,-0.1837,-0.0092,-0.24109999999999998
1.530038250956274,2.933,0.9667999999999999,-9.4832,-0.1893,-0.0151,-0.2429
1.5400385009625241,3.0684,0.7839,-9.418700000000001,-0.19569999999999999,-0.0181,-0.2428
1.5500387509687743,3.191,0.9480000000000001,-9.594999999999999,-0.1988,-0.013,-0.2412
1.5600390009750245,3.1609,1.1659,-9.892900000000001,-0.199,-0.0063999999999999994,-0.242
1.5700392509812746,2.9683,0.979,-9.6143,-0.2053,-0.0091,-0.24359999999999998
1.5800395009875248,3.0305,0.7302000000000001,-9.489899999999999,-0.2163,-0.0124,-0.2439
1.590039750993775,3.1784,0.7489,-9.6772,-0.2244,-0.0092,-0.2432
1.600040001000025,3.1428999999999996,0.9301999999999999,-9.828000000000001,-0.22590000000000002,-0.0036999999999999997,-0.2435
1.6100402510062752,3.0426,0.7842999999999999,-9.6046,-0.22290000000000001,-0.005,-0.24550000000000002
1.6200405010125254,2.9674,0.5922000000000001,-9.3525,-0.2268,-0.0106,-0.2463
1.6300407510187755,3.1717,0.5904999999999999,-9.5068,-0.23370000000000002,-0.007499999999999999,-0.2447
1.6400410010250257,3.1404,0.7602,-9.7292,-0.2326,-0.002,-0.2447
1.6500412510312759,3.0955,0.795,-9.746699999999999,-0.22859999999999997,-0.0005,-0.2457
1.660041501037526,2.9358,0.5288,-9.4634,-0.234,-0.006999999999999999,-0.24689999999999998
1.6700417510437762,3.1140999999999996,0.3862,-9.4439,-0.23700000000000002,-0.0077,-0.24650000000000002
1.6800420010500263,3.1855,0.5374,-9.6836,-0.23700000000000002,-0.0014,-0.24559999999999998
1.6900422510562765,3.1287000000000003,0.6486,-9.7685,-0.2321,0.0024000000000000002,-0.2473
1.7000425010625266,2.9432,0.3222,-9.380099999999999,-0.2334,-0.0036,-0.25
1.7100427510687768,3.0362,0.1586,-9.3624,-0.2322,-0.0055,-0.24789999999999998
1.720043001075027,3.1902,0.338,-9.5212,-0.2258,-0.0006000000000000001,-0.2484
1.730043251081277,3.1428,0.5101,-9.7562,-0.2177,0.0045000000000000005,-0.2484
1.7400435010875273,2.9845,0.2748,-9.4909,-0.212,0.0009,-0.2516
1.7500437510937774,2.989,0.0959,-9.4069,-0.213,-0.0034999999999999996,-0.251
1.7600440011000276,3.1755,0.15189999999999998,-9.5153,-0.2092,-0.00019999999999999998,-0.25
1.7700442511062777,3.1407999999999996,0.3563,-9.701600000000001,-0.20179999999999998,0.0050999999999999995,-0.2502
1.7800445011125279,3.0126,0.2869,-9.5262,-0.1936,0.0036999999999999997,-0.252
1.790044751118778,2.9760999999999997,0.08109999999999999,-9.345699999999999,-0.1964,-0.0015,-0.25279999999999997
1.8000450011250282,3.1718999999999995,0.017,-9.4635,-0.1978,0.0014,-0.2516
1.8100452511312783,3.1548,0.2519,-9.6583,-0.1914,0.0067,-0.2516
1.8200455011375285,3.0544000000000002,0.20539999999999997,-9.557,-0.183,0.0071,-0.2539
1.8300457511437787,2.9522,-0.0368,-9.3872,-0.183,0.0009,-0.2546
1.8400460011500288,3.1304,-0.12949999999999998,-9.4031,-0.1824,0.0010999999999999998,-0.254
1.850046251156279,3.1674,0.10909999999999999,-9.6258,-0.1756,0.0066,-0.25370000000000004
1.8600465011625291,3.0839,0.1999,-9.6096,-0.1691,0.0085,-0.2553
1.8700467511687793,2.9343,-0.0708,-9.3507,-0.1704,0.0031,-0.2567
1.8800470011750294,3.0935,-0.2163,-9.384099999999998,-0.1711,0.0024000000000000002,-0.256
1.8900472511812796,3.183,-0.0578,-9.574399999999999,-0.1682,0.0081,-0.2553
1.9000475011875297,3.1004,0.091,-9.6613,-0.1603,0.0111,-0.2562
1.91004775119378,2.9246999999999996,-0.1459,-9.3671,-0.1574,0.0056,-0.2589
1.9200480012000303,3.0257,-0.29750000000000004,-9.3379,-0.1583,0.0031999999999999997,-0.2571
1.9300482512062804,3.1759999999999997,-0.2079,-9.4575,-0.15610000000000002,0.0077,-0.2577
1.9400485012125306,3.0942,0.0151,-9.6649,-0.1507,0.0132,-0.2567
1.9500487512187807,2.9539,-0.19319999999999998,-9.3751,-0.1451,0.009000000000000001,-0.2612
1.960049001225031,2.9716,-0.3993,-9.3156,-0.1475,0.0041,-0.2598
1.970049251231281,3.1376,-0.3686,-9.3955,-0.1447,0.0073,-0.2602
1.9800495012375312,3.0883,-0.1461,-9.591800000000001,-0.13929999999999998,0.0124,-0.26
1.9900497512437814,2.9617,-0.2317,-9.408800000000001,-0.131,0.010799999999999999,-0.2621
2.0000500012500315,2.9153,-0.457,-9.2809,-0.1308,0.004699999999999999,-0.2634
2.0100502512562817,3.1096,-0.5046,-9.3355,-0.1286,0.0066,-0.2621
2.020050501262532,3.0698,-0.3124,-9.4418,-0.12119999999999999,0.011,-0.2627
2.030050751268782,2.9866,-0.22560000000000002,-9.422899999999998,-0.1127,0.0119,-0.2627
2.040051001275032,2.8949,-0.4291,-9.256599999999999,-0.1139,0.0059,-0.2647
2.0500512512812823,3.0766,-0.6043,-9.266,-0.1142,0.0050999999999999995,-0.26380000000000003
2.0600515012875324,3.1064000000000003,-0.3764,-9.4085,-0.1052,0.0097,-0.2635
2.0700517512937826,3.0069999999999997,-0.2984,-9.4133,-0.0939,0.0114,-0.2647
2.0800520013000328,2.886,-0.5173,-9.2319,-0.089,0.006999999999999999,-0.266
2.090052251306283,3.021,-0.7121,-9.217,-0.0826,0.0050999999999999995,-0.2662
2.100052501312533,3.1092999999999997,-0.5209,-9.356,-0.07339999999999999,0.0093,-0.26549999999999996
2.1100527513187832,3.039,-0.38739999999999997,-9.4449,-0.0598,0.0119,-0.266
2.1200530013250334,2.8855,-0.5767,-9.2111,-0.048799999999999996,0.0072,-0.26909999999999995
2.1300532513312835,2.9897,-0.6755,-9.220799999999999,-0.0442,0.0049,-0.2672
2.1400535013375337,3.1431,-0.5914,-9.36,-0.038099999999999995,0.008799999999999999,-0.267
2.150053751343784,3.0423999999999998,-0.3598,-9.471599999999999,-0.025099999999999997,0.0119,-0.26589999999999997
2.160054001350034,2.8855,-0.5192,-9.197099999999999,-0.0146,0.0072,-0.2689
2.170054251356284,2.9349,-0.6877,-9.1465,-0.0092,0.003,-0.2672
2.1800545013625343,3.1462999999999997,-0.6816,-9.2784,-0.0007,0.0065,-0.26689999999999997
2.1900547513687845,3.0431,-0.4413,-9.4255,0.0136,0.0115,-0.2663
2.2000550013750346,2.9543,-0.41729999999999995,-9.2761,0.0252,0.0086,-0.26809999999999995
2.210055251381285,2.9398,-0.6055999999999999,-9.1594,0.028999999999999998,0.0036999999999999997,-0.26809999999999995
2.220055501387535,3.1322999999999994,-0.6923999999999999,-9.2822,0.033100000000000004,0.0057,-0.26749999999999996
2.230055751393785,3.092,-0.43239999999999995,-9.4686,0.0435,0.0114,-0.2661
2.2400560014000352,2.9879,-0.38539999999999996,-9.351099999999999,0.0563,0.010199999999999999,-0.26789999999999997
2.2500562514062854,2.8975,-0.6486,-9.1243,0.0611,0.0042,-0.2689
2.2600565014125356,3.036,-0.7894999999999999,-9.1526,0.0675,0.004399999999999999,-0.26689999999999997
2.2700567514187857,3.1231999999999998,-0.5135,-9.286999999999999,0.0835,0.0097,-0.2653
2.280057001425036,2.9686,-0.3257,-9.2953,0.1018,0.0104,-0.2661
2.290057251431286,2.8809,-0.4884,-9.1021,0.1085,0.0046,-0.2664
2.300057501437536,3.0457,-0.6509,-9.1777,0.1082,0.0034999999999999996,-0.2653
2.3100577514437863,3.1197,-0.48650000000000004,-9.2595,0.1181,0.0077,-0.26380000000000003
2.3200580014500365,3.0669,-0.2676,-9.4117,0.1322,0.01,-0.26380000000000003
2.3300582514562866,2.8463,-0.4922,-9.0693,0.1391,0.0055,-0.26589999999999997
2.340058501462537,2.9987,-0.6649999999999999,-9.0747,0.1428,0.0026,-0.2641
2.350058751468787,3.1115,-0.4735,-9.2666,0.1534,0.0072,-0.26289999999999997
2.360059001475037,3.0549,-0.266,-9.3743,0.1634,0.0115,-0.26289999999999997
2.3700592514812873,2.8906,-0.338,-9.2034,0.1671,0.0091,-0.2635
2.3800595014875374,2.9053999999999998,-0.5287,-9.042300000000001,0.1674,0.0029,-0.26389999999999997
2.3900597514937876,3.0839,-0.4328,-9.1972,0.1693,0.0049,-0.2601
2.4000600015000377,3.0543,-0.2406,-9.3421,0.1804,0.009600000000000001,-0.2605
2.410060251506288,2.9378,-0.25899999999999995,-9.2501,0.1858,0.0093,-0.2614
2.420060501512538,2.872,-0.4699,-9.0753,0.185,0.0039,-0.261
2.430060751518788,3.0747,-0.4456,-9.200700000000001,0.18539999999999998,0.0045000000000000005,-0.2591
2.4400610015250384,3.023,-0.1712,-9.3396,0.1934,0.0093,-0.2577
2.4500612515312885,2.9582,-0.1471,-9.2629,0.19669999999999999,0.0095,-0.2589
2.4600615015375387,2.8538,-0.3869,-9.0923,0.1939,0.0036999999999999997,-0.2597
2.470061751543789,3.0266,-0.4018,-9.1465,0.1935,0.0031,-0.2575
2.480062001550039,3.0637999999999996,-0.151,-9.2676,0.19949999999999998,0.0077,-0.2567
2.490062251556289,2.9753000000000003,-0.0554,-9.2334,0.20370000000000002,0.0095,-0.2567
2.5000625015625393,2.8483,-0.3017,-9.0939,0.20070000000000002,0.0045000000000000005,-0.2571
2.5100627515687894,2.9850999999999996,-0.3255,-9.1353,0.2016,0.0026999999999999997,-0.2547
2.5200630015750396,3.0754,-0.0878,-9.285499999999999,0.20539999999999997,0.0065,-0.254
2.5300632515812898,2.9617,-0.032,-9.2528,0.20879999999999999,0.0089,-0.2535
2.54006350158754,2.8719,-0.1878,-9.124799999999999,0.20909999999999998,0.0046,-0.2539
2.55006375159379,2.959,-0.2928,-9.0711,0.20929999999999999,0.0019,-0.25270000000000004
2.56006400160004,3.0606,-0.1454,-9.194099999999999,0.2144,0.0048000000000000004,-0.2516
2.5700642516062904,3.012,0.007899999999999999,-9.3073,0.2203,0.0085,-0.2505
2.5800645016125405,2.8705000000000003,-0.096,-9.1326,0.2232,0.0053,-0.25179999999999997
2.5900647516187907,2.9196,-0.24810000000000001,-9.0271,0.22369999999999998,0.00039999999999999996,-0.2507
2.600065001625041,3.0296,-0.11460000000000001,-9.164,0.2295,0.0025,-0.2483
2.610065251631291,3.0227,0.053,-9.2469,0.2376,0.0065,-0.24810000000000001
2.620065501637541,2.8721,0.0034,-9.158199999999999,0.2395,0.005,-0.24780000000000002
2.6300657516437913,2.8847,-0.184,-9.0189,0.2408,-0.00019999999999999998,-0.2476
2.6400660016500415,3.0623,-0.08310000000000001,-9.1675,0.24559999999999998,0.0010999999999999998,-0.24550000000000002
2.6500662516562916,2.9953,0.11789999999999999,-9.256599999999999,0.2533,0.005,-0.2444
2.6600665016625418,2.9124,0.087,-9.1654,0.25579999999999997,0.0041,-0.245
2.670066751668792,2.8556,-0.06369999999999999,-9.040099999999999,0.2566,-0.0005,-0.2444
2.680067001675042,3.0122,-0.0229,-9.1605,0.2568,-0.0005,-0.24309999999999998
2.6900672516812922,2.9857,0.1441,-9.2583,0.2601,0.0039,-0.24139999999999998
2.7000675016875424,2.953,0.1882,-9.248099999999999,0.2635,0.0045000000000000005,-0.2422
2.7100677516937925,2.8383,0.035199999999999995,-9.0654,0.2612,-0.0005,-0.242
2.7200680017000427,2.9657,0.013699999999999999,-9.1022,0.2612,-0.0017,-0.23999999999999996
2.730068251706293,3.0042,0.2502,-9.22,0.2632,0.0015,-0.23879999999999998
2.740068501712543,2.9567,0.29229999999999995,-9.239700000000001,0.26480000000000004,0.0034999999999999996,-0.2386
2.750068751718793,2.849,0.149,-9.131,0.2602,-0.0010999999999999998,-0.2393
2.7600690017250433,2.9354,0.10319999999999999,-9.1134,0.2568,-0.0028,-0.2375
2.7700692517312935,3.0116,0.22460000000000002,-9.2526,0.255,0.00039999999999999996,-0.2372
2.7800695017375436,2.9524,0.35869999999999996,-9.33,0.25379999999999997,0.0036,-0.23570000000000002
2.790069751743794,2.8575,0.26189999999999997,-9.175999999999998,0.2487,-0.0007999999999999999,-0.23709999999999998
2.800070001750044,2.8948,0.1837,-9.0703,0.24209999999999998,-0.0049,-0.23540000000000003
2.810070251756294,3.0091,0.2753,-9.1208,0.2423,-0.0034,-0.2342
2.8200705017625443,2.9903999999999997,0.4242,-9.2674,0.24359999999999998,0.0006000000000000001,-0.2333
2.8300707517687944,2.8514,0.3601,-9.140099999999999,0.2418,-0.0009,-0.23349999999999999
2.8400710017750446,2.8823999999999996,0.2445,-9.0681,0.23900000000000002,-0.005,-0.2329
2.8500712517812947,3.0005,0.30339999999999995,-9.1854,0.23570000000000002,-0.0041,-0.2318
2.860071501787545,2.9754,0.4235,-9.3253,0.2341,-0.0007,-0.2311
2.870071751793795,2.908,0.4015,-9.2434,0.2321,-0.001,-0.2316
2.880072001800045,2.8628,0.31779999999999997,-9.0891,0.2304,-0.0058,-0.2311
2.8900722518062953,2.9770999999999996,0.3301,-9.1502,0.2281,-0.006,-0.22989999999999997
2.9000725018125455,2.9743999999999997,0.4743,-9.2723,0.2274,-0.0023,-0.2287
2.9100727518187957,2.9156999999999997,0.5107999999999999,-9.2057,0.22759999999999997,-0.0018,-0.22859999999999997
2.920073001825046,2.8627,0.41200000000000003,-9.0865,0.2245,-0.0060999999999999995,-0.22859999999999997
2.930073251831296,2.9402,0.3817,-9.0918,0.2213,-0.0076,-0.22729999999999997
2.940073501837546,2.9746,0.4746,-9.2234,0.21819999999999998,-0.005,-0.2265
2.9500737518437963,2.9402,0.5585,-9.3026,0.21789999999999998,-0.003,-0.2258
2.9600740018500464,2.8449999999999998,0.4746,-9.1634,0.214,-0.0076,-0.2271
2.9700742518562966,2.9012,0.3836,-9.097299999999999,0.2104,-0.0105,-0.22569999999999998
2.9800745018625467,2.9925,0.4551,-9.17,0.21,-0.0085,-0.22560000000000002
2.990074751868797,2.9817,0.5875,-9.3079,0.2104,-0.0045000000000000005,-0.22399999999999998
3.000075001875047,2.8362,0.5078,-9.124,0.2089,-0.0069,-0.2252
3.010075251881297,2.8861,0.4543,-9.1286,0.2065,-0.0104,-0.22360000000000002
3.0200755018875474,2.9829,0.4949,-9.1936,0.2052,-0.0095,-0.2235
3.0300757518937975,2.9773,0.6314,-9.349300000000001,0.20279999999999998,-0.0059,-0.22190000000000001
3.0400760019000477,2.8573,0.5971,-9.2227,0.2029,-0.0071,-0.22290000000000001
3.050076251906298,2.871,0.5366,-9.0971,0.1992,-0.0123,-0.22260000000000002
3.060076501912548,2.9795,0.4877,-9.154,0.19419999999999998,-0.0123,-0.2216
3.070076751918798,2.9607,0.6455,-9.2981,0.19419999999999998,-0.0085,-0.221
3.0800770019250483,2.8971,0.6848,-9.2401,0.191,-0.0086,-0.2215
3.0900772519312985,2.886,0.5922000000000001,-9.154399999999999,0.1856,-0.0127,-0.2207
3.1000775019375486,2.9385999999999997,0.5488999999999999,-9.1374,0.183,-0.0142,-0.22139999999999999
3.1100777519437988,2.9850999999999996,0.6406000000000001,-9.2533,0.1774,-0.0106,-0.2196
3.120078001950049,2.956,0.707,-9.3415,0.17579999999999998,-0.0084,-0.2196
3.130078251956299,2.8459999999999996,0.62,-9.209299999999999,0.1703,-0.0123,-0.2208
3.1400785019625492,2.9221,0.5724,-9.2047,0.1648,-0.0143,-0.2196
3.1500787519687994,2.9989,0.6052,-9.2805,0.1599,-0.012,-0.22
3.1600790019750495,2.9482999999999997,0.685,-9.4049,0.1587,-0.0087,-0.21889999999999998
3.1700792519812997,2.8725,0.6271,-9.240499999999999,0.1538,-0.0113,-0.22039999999999998
3.18007950198755,2.8715,0.5568,-9.1979,0.14959999999999998,-0.0146,-0.2193
3.1900797519938,2.985,0.5986,-9.2532,0.1461,-0.0135,-0.2193
3.20008000200005,2.978,0.7176,-9.4369,0.1419,-0.009899999999999999,-0.21879999999999997
3.2100802520063003,2.875,0.6805,-9.2848,0.13949999999999999,-0.0112,-0.2196
3.2200805020125505,2.8833,0.631,-9.1809,0.1345,-0.0157,-0.2198
3.2300807520188006,2.9794,0.5765,-9.2446,0.1273,-0.014999999999999998,-0.2193
3.240081002025051,2.9701,0.6799000000000001,-9.3592,0.1255,-0.0118,-0.2191
3.250081252031301,2.9312,0.7418,-9.337399999999999,0.12390000000000001,-0.0118,-0.2194
3.260081502037551,2.8951000000000002,0.6642,-9.2174,0.11839999999999999,-0.0157,-0.21989999999999998
3.2700817520438012,2.9461999999999997,0.6214999999999999,-9.1783,0.1158,-0.0164,-0.2196
3.2800820020500514,3.0029,0.6649,-9.2944,0.1117,-0.013300000000000001,-0.2191
3.2900822520563016,2.9579,0.7446999999999999,-9.3599,0.11180000000000001,-0.0113,-0.2186
3.3000825020625517,2.8771,0.6622,-9.2029,0.109,-0.0151,-0.2205
3.310082752068802,2.936,0.6075999999999999,-9.1877,0.1057,-0.017,-0.2191
3.320083002075052,3.0317,0.6171,-9.269,0.1031,-0.0144,-0.2197
3.330083252081302,2.9802999999999997,0.7485,-9.413499999999999,0.10319999999999999,-0.0111,-0.21849999999999997
3.3400835020875523,2.8745,0.7041999999999999,-9.223099999999999,0.10250000000000001,-0.0142,-0.22039999999999998
3.3500837520938025,2.9212,0.6151,-9.174499999999998,0.0982,-0.0182,-0.2197
3.3600840021000526,3.0235999999999996,0.5841,-9.2553,0.096,-0.0164,-0.2194
3.370084252106303,2.9902,0.7373,-9.4145,0.0964,-0.0127,-0.2191
3.380084502112553,2.9309000000000003,0.7333,-9.270999999999999,0.0957,-0.0144,-0.2201
3.390084752118803,2.8891,0.6469,-9.1664,0.092,-0.019200000000000002,-0.22
3.4000850021250533,2.9954,0.6038,-9.1891,0.089,-0.0186,-0.21989999999999998
3.4100852521313034,3.0166999999999997,0.6923999999999999,-9.339,0.08589999999999999,-0.014499999999999999,-0.2194
3.4200855021375536,2.9846,0.7823999999999999,-9.4331,0.0866,-0.013,-0.2193
3.4300857521438037,2.88,0.6513,-9.226099999999999,0.0818,-0.0182,-0.2216
3.440086002150054,2.9669999999999996,0.5896,-9.191199999999998,0.0767,-0.0196,-0.2203
3.450086252156304,3.0755999999999997,0.6481,-9.338299999999998,0.0726,-0.015899999999999997,-0.2205
3.460086502162554,2.9776,0.7952,-9.4667,0.0722,-0.0123,-0.22
3.4700867521688044,2.8914,0.6708000000000001,-9.234,0.0668,-0.0165,-0.2221
3.4800870021750545,2.9358999999999997,0.6312,-9.2302,0.0619,-0.019200000000000002,-0.2207
3.4900872521813047,3.0533,0.6161,-9.312199999999999,0.055900000000000005,-0.0173,-0.22169999999999998
3.500087502187555,2.9818000000000002,0.7438,-9.471,0.0525,-0.0132,-0.22019999999999998
3.510087752193805,2.9637,0.7409,-9.3608,0.0504,-0.0152,-0.2225
3.520088002200055,2.9139999999999997,0.6204999999999999,-9.200999999999999,0.0414,-0.02,-0.22290000000000001
3.5300882522063053,3.0276,0.5967,-9.2765,0.034999999999999996,-0.0182,-0.222
3.5400885022125554,3.0085,0.6883,-9.396799999999999,0.031100000000000003,-0.014499999999999999,-0.22269999999999998
3.5500887522188056,2.9994,0.7596,-9.4642,0.0286,-0.0135,-0.22190000000000001
3.5600890022250558,2.8919,0.5969,-9.2722,0.0207,-0.018799999999999997,-0.2245
3.570089252231306,2.9886,0.6178,-9.2906,0.0142,-0.0191,-0.2228
3.580089502237556,3.0631,0.6477,-9.3618,0.008799999999999999,-0.015899999999999997,-0.2238
3.590089752243806,3.0041,0.7644,-9.496599999999999,0.006,-0.0131,-0.2228
3.6000900022500564,2.9171,0.6245999999999999,-9.2741,-0.0009,-0.0168,-0.2251
3.6100902522563065,2.9634,0.6174999999999999,-9.2584,-0.0078,-0.0191,-0.22369999999999998
3.6200905022625567,3.1026000000000002,0.5976,-9.3528,-0.015300000000000001,-0.017,-0.2245
3.630090752268807,3.0353,0.7347,-9.5345,-0.0181,-0.012799999999999999,-0.2232
3.640091002275057,2.9621,0.6655,-9.3301,-0.0212,-0.015300000000000001,-0.22569999999999998
3.650091252281307,2.9591,0.5357999999999999,-9.2454,-0.0301,-0.019200000000000002,-0.2254
3.6600915022875573,3.0987,0.5229,-9.333,-0.0361,-0.0171,-0.22460000000000002
3.6700917522938075,3.0540999999999996,0.6936,-9.533199999999999,-0.0383,-0.012799999999999999,-0.22460000000000002
3.6800920023000576,3.0018,0.6920999999999999,-9.4149,-0.0413,-0.0139,-0.2254
3.6900922523063078,2.9289,0.5002,-9.2285,-0.0486,-0.0197,-0.2264
3.700092502312558,3.0936,0.4368,-9.2981,-0.0553,-0.0185,-0.22529999999999997
3.710092752318808,3.063,0.5615,-9.432599999999999,-0.056400000000000006,-0.0139,-0.2251
3.7200930023250582,3.0512,0.5784,-9.4628,-0.05469999999999999,-0.013,-0.22590000000000002
3.7300932523313084,2.9309000000000003,0.40879999999999994,-9.275,-0.057300000000000004,-0.0182,-0.22669999999999998
3.7400935023375586,3.0245,0.3552,-9.24,-0.05689999999999999,-0.0193,-0.2265
3.7500937523438087,3.1363000000000003,0.4431,-9.410599999999999,-0.05959999999999999,-0.0154,-0.22629999999999997
3.760094002350059,3.0584,0.563,-9.558,-0.05689999999999999,-0.0121,-0.22529999999999997
3.770094252356309,2.9444,0.43689999999999996,-9.3095,-0.059199999999999996,-0.0164,-0.22859999999999997
3.780094502362559,2.9905,0.311,-9.2656,-0.0648,-0.0194,-0.22690000000000002
3.7900947523688093,3.1519999999999997,0.36129999999999995,-9.370199999999999,-0.0654,-0.0165,-0.22669999999999998
3.8000950023750595,3.0677,0.4987,-9.5449,-0.06359999999999999,-0.0124,-0.2265
3.8100952523813096,2.9732000000000003,0.4522,-9.335899999999999,-0.0629,-0.0151,-0.22790000000000002
3.82009550238756,2.9787999999999997,0.2768,-9.198599999999999,-0.0681,-0.0201,-0.2281
3.83009575239381,3.1088,0.2898,-9.3131,-0.0705,-0.017599999999999998,-0.22699999999999998
3.8400960024000605,3.0814999999999997,0.3967,-9.462,-0.0696,-0.0136,-0.22769999999999999
3.8500962524063107,3.061,0.4039,-9.4962,-0.067,-0.0134,-0.22790000000000002
3.860096502412561,2.9362,0.21549999999999997,-9.2727,-0.0698,-0.0196,-0.2298
3.870096752418811,3.0949,0.1689,-9.2737,-0.0718,-0.0195,-0.22859999999999997
3.880097002425061,3.1021,0.2876,-9.3376,-0.0698,-0.015300000000000001,-0.2281
3.8900972524313113,3.1262,0.44380000000000003,-9.559,-0.0647,-0.0114,-0.22769999999999999
3.9000975024375615,2.9217,0.1802,-9.261,-0.0689,-0.0168,-0.2304
3.9100977524438116,3.0448,0.12340000000000001,-9.3001,-0.06999999999999999,-0.019,-0.22820000000000001
3.920098002450062,3.1622999999999997,0.189,-9.3775,-0.06999999999999999,-0.0162,-0.2295
3.930098252456312,3.1037,0.3475,-9.599599999999999,-0.0661,-0.0116,-0.2275
3.940098502462562,2.976,0.21580000000000002,-9.3189,-0.0642,-0.015300000000000001,-0.23059999999999997
3.9500987524688123,3.0093,0.0607,-9.2661,-0.0666,-0.019,-0.22989999999999997
3.9600990024750624,3.1620000000000004,0.0829,-9.3533,-0.0671,-0.0167,-0.22889999999999996
3.9700992524813126,3.1186,0.28609999999999997,-9.5946,-0.063,-0.0121,-0.22920000000000001
3.9800995024875627,3.0261,0.2082,-9.4042,-0.059500000000000004,-0.0134,-0.23099999999999998
3.990099752493813,2.9852,0.0113,-9.2694,-0.0616,-0.0184,-0.2309
4.000100002500063,3.1746000000000003,-0.024499999999999997,-9.3534,-0.062200000000000005,-0.015899999999999997,-0.2301
4.010100252506313,3.0982,0.1804,-9.5695,-0.058600000000000006,-0.010799999999999999,-0.2294
4.020100502512563,3.0713,0.2386,-9.5316,-0.053799999999999994,-0.010799999999999999,-0.2304
4.0301007525188135,2.9579,-0.0115,-9.2982,-0.0584,-0.0174,-0.2318
4.040101002525064,3.1264,-0.06459999999999999,-9.2945,-0.0582,-0.017,-0.2301
4.050101252531314,3.1558999999999995,0.07619999999999999,-9.3789,-0.0546,-0.013,-0.23059999999999997
4.060101502537564,3.1041,0.217,-9.4925,-0.0485,-0.0105,-0.2291
4.070101752543814,2.9843,0.0046,-9.246699999999999,-0.0482,-0.0156,-0.2324
4.080102002550064,3.0673,-0.1248,-9.2489,-0.04889999999999999,-0.0174,-0.2305
4.090102252556314,3.1988999999999996,-0.0485,-9.3527,-0.0452,-0.0146,-0.23099999999999998
4.100102502562565,3.1403,0.1313,-9.5807,-0.0392,-0.0101,-0.23029999999999998
4.110102752568815,2.9957999999999996,-0.0346,-9.3131,-0.0329,-0.0123,-0.2327
4.120103002575065,3.0161,-0.1943,-9.237499999999999,-0.0328,-0.015899999999999997,-0.2322
4.130103252581315,3.1845,-0.183,-9.3694,-0.0313,-0.012799999999999999,-0.2311
4.140103502587565,3.1133,0.026600000000000002,-9.5601,-0.0247,-0.0082,-0.23099999999999998
4.150103752593815,3.047,-0.0438,-9.399000000000001,-0.014100000000000001,-0.0097,-0.2329
4.1601040026000655,2.9518999999999997,-0.21789999999999998,-9.2082,-0.0132,-0.016,-0.2329
4.170104252606316,3.1562,-0.1971,-9.2879,-0.0119,-0.0135,-0.23149999999999998
4.180104502612566,3.1328,0.0114,-9.437,-0.0073999999999999995,-0.0091,-0.23129999999999998
4.190104752618816,3.1073,0.0871,-9.5292,-0.0026,-0.0073999999999999995,-0.23099999999999998
4.200105002625066,2.9602,-0.21289999999999998,-9.2897,-0.0049,-0.013699999999999999,-0.234
4.210105252631316,3.0949,-0.2689,-9.298399999999999,-0.0056,-0.0146,-0.2321
4.2201055026375665,3.1915,-0.12869999999999998,-9.384099999999998,-0.0013,-0.0106,-0.2326
4.230105752643817,3.1386,0.0701,-9.5711,0.0076,-0.006,-0.23129999999999998
4.240106002650067,2.9634,-0.1897,-9.2554,0.013,-0.0111,-0.2349
4.250106252656317,3.0732,-0.26549999999999996,-9.2717,0.0107,-0.0131,-0.2324
4.260106502662567,3.2008,-0.1525,-9.385200000000001,0.013,-0.0093,-0.2326
4.270106752668817,3.1302999999999996,0.046,-9.5929,0.0197,-0.0049,-0.23199999999999998
4.280107002675067,2.9845,-0.15610000000000002,-9.285,0.0232,-0.0086,-0.2343
4.2901072526813175,3.038,-0.2974,-9.242,0.0221,-0.0123,-0.2333
4.300107502687568,3.1809999999999996,-0.2622,-9.3363,0.0242,-0.009000000000000001,-0.2327
4.310107752693818,3.1357999999999997,-0.0156,-9.527,0.029599999999999998,-0.0045000000000000005,-0.2316
4.320108002700068,3.0476,-0.0566,-9.3484,0.0363,-0.0065,-0.2336
4.330108252706318,2.9979,-0.247,-9.187199999999999,0.0348,-0.0114,-0.2339
4.340108502712568,3.1713999999999998,-0.2904,-9.2683,0.0348,-0.0092,-0.2323
4.3501087527188185,3.1742,-0.0818,-9.443999999999999,0.041,-0.0043,-0.2316
4.360109002725069,3.1099,0.0172,-9.4811,0.0491,-0.0029,-0.2323
4.370109252731319,2.9887,-0.2316,-9.2494,0.047,-0.0091,-0.2343
4.380109502737569,3.1016999999999997,-0.2997,-9.2439,0.0472,-0.0093,-0.2323
4.390109752743819,3.2201,-0.1407,-9.3651,0.0519,-0.0050999999999999995,-0.2324
4.400110002750069,3.1343999999999994,0.010199999999999999,-9.498099999999999,0.05910000000000001,-0.001,-0.2316
4.410110252756319,2.9635000000000002,-0.193,-9.241,0.05910000000000001,-0.0059,-0.2343
4.42011050276257,3.065,-0.3353,-9.2373,0.0562,-0.0081,-0.2323
4.43011075276882,3.2075,-0.1768,-9.3437,0.0577,-0.0046,-0.2317
4.44011100277507,3.1359999999999997,0.0397,-9.564400000000001,0.06449999999999999,9.999999999999999e-05,-0.2311
4.45011125278132,2.979,-0.1799,-9.2744,0.0663,-0.0036999999999999997,-0.2339
4.46011150278757,3.0298,-0.3452,-9.2014,0.0655,-0.0077,-0.2322
4.47011175279382,3.1938,-0.261,-9.3408,0.067,-0.0046,-0.2318
4.4801120028000705,3.128,-0.014100000000000001,-9.517299999999999,0.0721,0.0006000000000000001,-0.2307
4.490112252806321,3.0246999999999997,-0.089,-9.309099999999999,0.0769,-0.0015999999999999999,-0.2332
4.500112502812571,2.9683,-0.28600000000000003,-9.1442,0.0737,-0.006999999999999999,-0.2328
4.510112752818821,3.1399999999999997,-0.3217,-9.2134,0.0741,-0.0053,-0.23199999999999998
4.520113002825071,3.1571000000000002,-0.1252,-9.408999999999999,0.0784,-0.00019999999999999998,-0.23129999999999998
4.530113252831321,3.0775,-0.06449999999999999,-9.4083,0.08679999999999999,0.0013,-0.2317
4.540113502837571,2.9628,-0.24139999999999998,-9.2067,0.0856,-0.0048000000000000004,-0.23370000000000002
4.550113752843822,3.0968999999999998,-0.2535,-9.210899999999999,0.0847,-0.0050999999999999995,-0.2311
4.560114002850072,3.1954999999999996,-0.10759999999999999,-9.279,0.0878,-0.0017,-0.2312
4.570114252856322,3.147,0.0351,-9.461799999999998,0.0933,0.0025,-0.22959999999999997
4.580114502862572,2.9479,-0.1726,-9.1459,0.0947,-0.0026999999999999997,-0.2327
4.590114752868822,3.0629,-0.2704,-9.1459,0.09259999999999999,-0.0058,-0.2304
4.600115002875072,3.1948,-0.1652,-9.225800000000001,0.0969,-0.0026999999999999997,-0.22989999999999997
4.6101152528813225,3.1676,0.0588,-9.441699999999999,0.1049,0.0018,-0.2294
4.620115502887573,2.9918,-0.0991,-9.1699,0.10629999999999999,-0.0012000000000000001,-0.2312
4.630115752893823,3.0347999999999997,-0.21459999999999999,-9.126900000000001,0.1062,-0.0052,-0.2297
4.640116002900073,3.2068,-0.1337,-9.2242,0.1065,-0.0036999999999999997,-0.22920000000000001
4.650116252906323,3.1458,0.1038,-9.4453,0.1108,0.0012000000000000001,-0.2272
4.660116502912573,3.0486,-0.008,-9.2447,0.1132,-0.00030000000000000003,-0.22999999999999998
4.670116752918823,3.0328,-0.19269999999999998,-9.1814,0.1109,-0.0036,-0.22859999999999997
4.680117002925074,3.1603,-0.2268,-9.2616,0.11130000000000001,-0.0021,-0.22790000000000002
4.690117252931324,3.1626,0.004399999999999999,-9.4796,0.11449999999999999,0.003,-0.2264
4.700117502937574,3.0287,0.003,-9.356200000000001,0.121,0.0026,-0.2278
4.710117752943824,2.9706,-0.1729,-9.1393,0.12049999999999998,-0.0042,-0.2281
4.720118002950074,3.1016,-0.23600000000000002,-9.1642,0.1211,-0.0042,-0.22669999999999998
4.730118252956324,3.1489999999999996,-0.0355,-9.3181,0.12489999999999998,0.0005,-0.2261
4.7401185029625745,3.1147,0.0566,-9.4057,0.1299,0.0034999999999999996,-0.2258
4.750118752968825,2.9616,-0.060899999999999996,-9.220699999999999,0.12819999999999998,-0.0017,-0.22669999999999998
4.760119002975075,3.0731,-0.1554,-9.1713,0.1265,-0.0043,-0.22599999999999998
4.770119252981325,3.1672,-0.09169999999999999,-9.2631,0.1271,-0.0013,-0.2254
4.780119502987575,3.1363000000000003,0.0663,-9.4541,0.1321,0.0031,-0.22390000000000002
4.790119752993825,3.0026,-0.027099999999999996,-9.2501,0.1357,0.00019999999999999998,-0.2264
4.8001200030000755,3.0275,-0.1437,-9.1572,0.1337,-0.0033,-0.22469999999999998
4.810120253006326,3.1558,-0.1006,-9.1663,0.1364,-0.0013,-0.22399999999999998
4.820120503012576,3.1621,0.1021,-9.4487,0.1427,0.0041,-0.2228
4.830120753018826,2.9845,0.015899999999999997,-9.1959,0.1473,0.0021999999999999997,-0.2245
4.840121003025076,3.0225,-0.075,-9.135,0.1469,-0.003,-0.2232
4.850121253031326,3.1364,-0.07619999999999999,-9.146799999999999,0.1489,-0.0025,-0.2232
4.860121503037576,3.1573999999999995,0.0804,-9.4072,0.1512,0.0029,-0.22139999999999999
4.8701217530438266,3.0521,0.09899999999999999,-9.273299999999999,0.1586,0.0026999999999999997,-0.2222
4.880122003050077,2.9905999999999997,0.0041,-9.1217,0.1593,-0.003,-0.2224
4.890122253056327,3.1033999999999997,-0.1082,-9.0978,0.159,-0.0033,-0.22139999999999999
4.900122503062577,3.1471999999999998,0.06449999999999999,-9.261800000000001,0.1651,0.0006000000000000001,-0.2201
4.910122753068827,3.0925000000000002,0.2322,-9.3323,0.1706,0.0031999999999999997,-0.2194
4.920123003075077,2.9717,0.0935,-9.1421,0.1681,-0.0014,-0.22089999999999999
4.9301232530813275,3.0561000000000003,-0.012899999999999998,-9.1084,0.16590000000000002,-0.0043,-0.2196
4.940123503087578,3.1711,0.0833,-9.1862,0.1663,-0.0010999999999999998,-0.21879999999999997
4.950123753093828,3.1244,0.26589999999999997,-9.4156,0.169,0.0041,-0.2174
4.960124003100078,2.9796,0.1178,-9.1831,0.1686,0.0007999999999999999,-0.2194
4.970124253106328,3.0137,0.04889999999999999,-9.140099999999999,0.1675,-0.0034,-0.21779999999999997
4.980124503112578,3.1551,0.0858,-9.1929,0.1666,-0.0021,-0.21749999999999997
4.990124753118828,3.1346,0.24459999999999998,-9.4299,0.1703,0.0031,-0.21610000000000001
5.000125003125079,2.9845,0.208,-9.2173,0.1729,0.001,-0.21749999999999997
5.010125253131329,3.01,0.07339999999999999,-9.1024,0.16999999999999998,-0.0038,-0.2166
5.020125503137579,3.1066,0.08689999999999999,-9.1511,0.1704,-0.0031999999999999997,-0.2157
5.030125753143829,3.0938,0.2896,-9.3537,0.1714,0.0015999999999999999,-0.21450000000000002
5.040126003150079,3.0770999999999997,0.26809999999999995,-9.2958,0.1721,0.0021,-0.2153
5.050126253156329,2.9647,0.15430000000000002,-9.168800000000001,0.1683,-0.0034999999999999996,-0.2157
5.0601265031625795,3.0873999999999997,0.1036,-9.1547,0.1649,-0.0038,-0.215
5.07012675316883,3.102,0.2376,-9.285,0.16419999999999998,0.00019999999999999998,-0.21380000000000002
5.08012700317508,3.0915,0.3157,-9.370299999999999,0.1666,0.0026999999999999997,-0.21350000000000002
5.09012725318133,2.9777,0.20209999999999997,-9.1813,0.1631,-0.002,-0.215
5.10012750318758,3.0322999999999998,0.1439,-9.094299999999999,0.1618,-0.0045000000000000005,-0.2133
5.11012775319383,3.1428,0.2254,-9.2227,0.1614,-0.0015999999999999999,-0.213
5.12012800320008,3.0864,0.3761,-9.3441,0.1643,0.0026,-0.21159999999999998
5.130128253206331,2.9647,0.2879,-9.1746,0.16269999999999998,-0.0013,-0.21359999999999998
5.140128503212581,3.0216,0.194,-9.1129,0.158,-0.005,-0.212
5.150128753218831,3.1447000000000003,0.22669999999999998,-9.1809,0.15560000000000002,-0.0031999999999999997,-0.2121
5.160129003225081,3.1096,0.3834,-9.423499999999999,0.1562,0.0015,-0.2109
5.170129253231331,2.9806,0.3076,-9.2013,0.1557,-0.0012000000000000001,-0.2127
5.180129503237581,3.0106,0.2314,-9.1005,0.154,-0.0056,-0.2113
5.1901297532438315,3.1237,0.21879999999999997,-9.144499999999999,0.15259999999999999,-0.004,-0.2113
5.200130003250082,3.1003,0.3794,-9.33,0.154,0.0006000000000000001,-0.2095
5.210130253256332,3.0486999999999997,0.3847,-9.2779,0.157,0.00019999999999999998,-0.2104
5.220130503262582,2.9631,0.2845,-9.1129,0.155,-0.0058,-0.2104
5.230130753268832,3.0984000000000003,0.2602,-9.0995,0.1542,-0.0065,-0.20929999999999999
5.240131003275082,3.1281000000000003,0.3821,-9.2421,0.156,-0.0023,-0.2087
5.2501312532813325,3.0904,0.4692,-9.3097,0.158,0.0,-0.20809999999999998
5.260131503287583,2.9644,0.3331,-9.1289,0.155,-0.0052,-0.2095
5.270131753293833,3.0504,0.3031,-9.0984,0.1529,-0.0078,-0.2082
5.280132003300083,3.1383,0.3562,-9.1591,0.15209999999999999,-0.0055,-0.2085
5.290132253306333,3.1356,0.4855,-9.3866,0.15309999999999999,-0.0006000000000000001,-0.20679999999999998
5.300132503312583,2.9663999999999997,0.3653,-9.1409,0.15410000000000001,-0.0039,-0.20879999999999999
5.310132753318833,3.0231999999999997,0.3488,-9.107899999999999,0.15259999999999999,-0.0078,-0.20679999999999998
5.3201330033250835,3.1338,0.3706,-9.1584,0.14989999999999998,-0.0067,-0.20679999999999998
5.330133253331334,3.1071999999999997,0.5293,-9.3449,0.1512,-0.0026,-0.20569999999999997
5.340133503337584,2.9991,0.4412,-9.2058,0.15,-0.0041,-0.2072
5.350133753343834,2.9918,0.3508,-9.131,0.1449,-0.0081,-0.20639999999999997
5.360134003350084,3.1057,0.3348,-9.187299999999999,0.1409,-0.007499999999999999,-0.2063
5.370134253356334,3.1027,0.4659,-9.376900000000001,0.14029999999999998,-0.0033,-0.20539999999999997
5.3801345033625845,3.0296,0.4797,-9.2974,0.1402,-0.0034,-0.2065
5.390134753368835,2.9881,0.388,-9.1886,0.1352,-0.0081,-0.2066
5.400135003375085,3.0658999999999996,0.3659,-9.136099999999999,0.1316,-0.0091,-0.2059
5.410135253381335,3.1214999999999997,0.4930999999999999,-9.2709,0.1283,-0.0057,-0.2052
5.420135503387585,3.0797,0.5361999999999999,-9.354,0.1276,-0.0036,-0.2053
5.430135753393835,2.9731,0.42979999999999996,-9.1672,0.12359999999999999,-0.0082,-0.2065
5.440136003400085,3.055,0.37829999999999997,-9.1213,0.11969999999999999,-0.010799999999999999,-0.2053
5.450136253406336,3.1485,0.4601,-9.2201,0.11800000000000001,-0.0083,-0.2053
5.460136503412586,3.1041,0.5783,-9.3626,0.11800000000000001,-0.0050999999999999995,-0.20439999999999997
5.470136753418836,3.0078,0.4459,-9.165199999999999,0.1166,-0.007499999999999999,-0.2063
5.480137003425086,3.0294,0.4271,-9.1508,0.11499999999999999,-0.0106,-0.20479999999999998
5.490137253431336,3.1217,0.4275,-9.173399999999999,0.1127,-0.009399999999999999,-0.2053
5.500137503437586,3.105,0.5278999999999999,-9.3419,0.1129,-0.0056,-0.20409999999999998
5.5101377534438365,3.0589,0.5186999999999999,-9.267999999999999,0.11549999999999999,-0.0063,-0.2055
5.520138003450087,3.0020000000000002,0.44939999999999997,-9.1554,0.11180000000000001,-0.0107,-0.2052
5.530138253456337,3.1059,0.4178,-9.1496,0.11009999999999999,-0.0105,-0.20439999999999997
5.540138503462587,3.1176,0.5303,-9.263,0.1098,-0.0077,-0.2042
5.550138753468837,3.0989,0.6042,-9.3124,0.1126,-0.0066,-0.2033
5.560139003475087,2.9736,0.4561,-9.101199999999999,0.11009999999999999,-0.012,-0.2056
5.570139253481337,3.1003,0.4123,-9.1181,0.10779999999999999,-0.013,-0.2032
5.580139503487588,3.1461,0.5166999999999999,-9.2251,0.10909999999999999,-0.0103,-0.20370000000000002
5.590139753493838,3.1158,0.6617,-9.3551,0.1106,-0.0073,-0.20270000000000002
5.600140003500088,2.9979,0.49379999999999996,-9.1712,0.1077,-0.0113,-0.2049
5.610140253506338,3.0652999999999997,0.43039999999999995,-9.1227,0.1052,-0.0144,-0.2035
5.620140503512588,3.1743,0.4758,-9.2072,0.104,-0.012,-0.20370000000000002
5.630140753518838,3.1164,0.6289999999999999,-9.386700000000001,0.1049,-0.0082,-0.20240000000000002
5.6401410035250885,3.0353999999999997,0.5472999999999999,-9.1627,0.10660000000000001,-0.0107,-0.2043
5.650141253531339,3.0266,0.46769999999999995,-9.1257,0.10319999999999999,-0.0144,-0.2033
5.660141503537589,3.1389,0.44580000000000003,-9.1782,0.0997,-0.013,-0.2033
5.670141753543839,3.1041,0.6033000000000001,-9.3606,0.0988,-0.009000000000000001,-0.2022
5.680142003550089,3.0894999999999997,0.6131,-9.352,0.09849999999999999,-0.0086,-0.20339999999999997
5.690142253556339,2.9742,0.4698,-9.1991,0.0911,-0.0138,-0.20439999999999997
5.7001425035625894,3.09,0.42960000000000004,-9.2035,0.0857,-0.0144,-0.2035
5.71014275356884,3.153,0.5463,-9.3382,0.083,-0.0111,-0.2035
5.72014300357509,3.0844,0.6252,-9.3739,0.0835,-0.009000000000000001,-0.203
5.73014325358134,3.0139,0.4901,-9.2174,0.0799,-0.012899999999999998,-0.2049
5.74014350358759,3.0508,0.46290000000000003,-9.162199999999999,0.07619999999999999,-0.0151,-0.2033
5.75014375359384,3.1807000000000003,0.5107,-9.2687,0.0729,-0.012899999999999998,-0.2039
5.76014400360009,3.1145,0.6312,-9.4719,0.0731,-0.0093,-0.2029
5.7701442536063405,3.0252,0.4909,-9.2081,0.0728,-0.0125,-0.2055
5.780144503612591,3.0524999999999998,0.438,-9.1921,0.0702,-0.015799999999999998,-0.2039
5.790144753618841,3.1658999999999997,0.4215,-9.2326,0.0697,-0.0139,-0.2045
5.800145003625091,3.1322,0.5841999999999999,-9.424299999999999,0.0724,-0.009899999999999999,-0.2036
5.810145253631341,3.0696,0.5512,-9.2843,0.0749,-0.011,-0.2053
5.820145503637591,3.0459,0.4525,-9.1728,0.0716,-0.0151,-0.2052
5.8301457536438415,3.1286,0.42160000000000003,-9.193999999999999,0.0709,-0.013699999999999999,-0.20470000000000002
5.840146003650092,3.1362,0.5705,-9.3269,0.0712,-0.01,-0.20400000000000001
5.850146253656342,3.1199999999999997,0.633,-9.368799999999998,0.0731,-0.0095,-0.2042
5.860146503662592,3.0192,0.4773,-9.2189,0.0689,-0.0144,-0.2059
5.870146753668842,3.1125,0.4377,-9.1758,0.0668,-0.015300000000000001,-0.20470000000000002
5.880147003675092,3.1984,0.5287,-9.2555,0.06570000000000001,-0.0126,-0.20500000000000002
5.890147253681342,3.1477999999999997,0.647,-9.4437,0.0682,-0.0091,-0.2039
5.9001475036875926,3.0185,0.4783,-9.1674,0.067,-0.013300000000000001,-0.20699999999999996
5.910147753693843,3.0941,0.4416,-9.1862,0.0639,-0.0155,-0.2045
5.920148003700093,3.1952000000000003,0.4941,-9.2431,0.0631,-0.0132,-0.20539999999999997
5.930148253706343,3.1746999999999996,0.6521,-9.4862,0.06359999999999999,-0.0093,-0.2042
5.940148503712593,3.0563,0.5337,-9.2264,0.0647,-0.0118,-0.2063
5.950148753718843,3.0665999999999998,0.47219999999999995,-9.1727,0.0615,-0.015899999999999997,-0.20539999999999997
5.9601490037250935,3.1872999999999996,0.4659,-9.2165,0.0585,-0.013999999999999999,-0.20500000000000002
5.970149253731344,3.1582,0.6106999999999999,-9.3942,0.0589,-0.0097,-0.2042
5.980149503737594,3.1447999999999996,0.643,-9.3672,0.0605,-0.0098,-0.2052
5.990149753743844,3.0224,0.48619999999999997,-9.200700000000001,0.053700000000000005,-0.014999999999999998,-0.2065
6.000150003750094,3.1492,0.43499999999999994,-9.2132,0.0479,-0.0144,-0.20539999999999997
6.010150253756344,3.2183,0.5364,-9.3672,0.0453,-0.010199999999999999,-0.2056
6.020150503762594,3.1544000000000003,0.6449,-9.478499999999999,0.046099999999999995,-0.0076,-0.20509999999999998
6.030150753768845,3.0238,0.4745,-9.2403,0.0407,-0.0124,-0.20769999999999997
6.040151003775095,3.1086,0.41650000000000004,-9.2382,0.034,-0.0142,-0.20579999999999998
6.050151253781345,3.2355,0.5073,-9.3277,0.030699999999999998,-0.0113,-0.2062
6.060151503787595,3.1405000000000003,0.6487999999999999,-9.4811,0.029300000000000003,-0.0084,-0.2055
6.070151753793845,3.0553,0.4713,-9.221400000000001,0.0278,-0.0119,-0.20769999999999997
6.080152003800095,3.078,0.4,-9.1611,0.0228,-0.0152,-0.20679999999999998
6.0901522538063455,3.2152,0.44209999999999994,-9.25,0.018699999999999998,-0.0124,-0.20609999999999998
6.100152503812596,3.1757,0.5983999999999999,-9.4536,0.0186,-0.008799999999999999,-0.2059
6.110152753818846,3.1246,0.5747,-9.3349,0.0184,-0.0101,-0.2072
6.120153003825096,3.077,0.42189999999999994,-9.1969,0.0119,-0.014799999999999999,-0.20779999999999998
6.130153253831346,3.1858999999999997,0.3478,-9.2031,0.0089,-0.0134,-0.20739999999999997
6.140153503837596,3.1872999999999996,0.48650000000000004,-9.3458,0.0095,-0.0092,-0.20679999999999998
6.150153753843846,3.1925000000000003,0.534,-9.4152,0.012799999999999999,-0.0072,-0.2073
6.160154003850097,3.0518,0.3929,-9.2376,0.01,-0.012,-0.20879999999999999
6.170154253856347,3.1634,0.36169999999999997,-9.210899999999999,0.0065,-0.0131,-0.20769999999999997
6.180154503862597,3.2274,0.45009999999999994,-9.2745,0.005,-0.0105,-0.20779999999999998
6.190154753868847,3.2078,0.5778,-9.4705,0.0077,-0.0073999999999999995,-0.2066
6.200155003875097,3.0503,0.40449999999999997,-9.2053,0.0062,-0.0119,-0.20929999999999999
6.210155253881347,3.1193999999999997,0.3094,-9.1744,0.0025,-0.014999999999999998,-0.2076
6.2201555038875975,3.2724999999999995,0.3656,-9.2588,0.0021999999999999997,-0.0126,-0.20779999999999998
6.230155753893848,3.2121999999999997,0.5367000000000001,-9.4867,0.0045000000000000005,-0.0077,-0.2072
6.240156003900098,3.0825,0.43229999999999996,-9.2495,0.0056,-0.01,-0.20909999999999998
6.250156253906348,3.1065,0.28969999999999996,-9.2082,0.0012000000000000001,-0.0144,-0.2085
6.260156503912598,3.2603,0.2807,-9.276399999999999,-0.00030000000000000003,-0.012,-0.20839999999999997
6.270156753918848,3.1919999999999997,0.45259999999999995,-9.4365,0.0023,-0.008,-0.2079
6.2801570039250985,3.1752000000000002,0.4537,-9.3682,0.0077,-0.0081,-0.2086
6.290157253931349,3.0822,0.3014,-9.2089,0.0045000000000000005,-0.0132,-0.2097
6.300157503937599,3.1971,0.23800000000000002,-9.1814,0.0021,-0.0127,-0.2087
6.310157753943849,3.2392999999999996,0.3631,-9.316,0.0036999999999999997,-0.0093,-0.20839999999999997
6.320158003950099,3.2081999999999997,0.5065,-9.494299999999999,0.0086,-0.0065,-0.2076
6.330158253956349,3.0686999999999998,0.28709999999999997,-9.2119,0.0066,-0.0113,-0.2105
6.340158503962599,3.1546,0.1581,-9.242899999999999,0.0036,-0.0131,-0.2086
6.3501587539688495,3.2689000000000004,0.30179999999999996,-9.2805,0.0069,-0.0107,-0.2087
6.3601590039751,3.2539,0.5137,-9.540999999999999,0.0106,-0.0067,-0.20809999999999998
6.37015925398135,3.0856999999999997,0.2967,-9.2125,0.0118,-0.0098,-0.2103
6.3801595039876,3.1419,0.2112,-9.2113,0.0111,-0.012899999999999998,-0.20909999999999998
6.39015975399385,3.2725999999999997,0.2515,-9.2721,0.0095,-0.0104,-0.209
6.4001600040001,3.2321,0.4177,-9.5128,0.0124,-0.0063,-0.20809999999999998
6.4101602540063505,3.144,0.3473,-9.2921,0.0171,-0.0082,-0.2103
6.420160504012601,3.1199999999999997,0.2012,-9.192699999999999,0.0144,-0.0124,-0.2098
6.430160754018851,3.2518,0.1769,-9.2339,0.0126,-0.0104,-0.20909999999999998
6.440161004025101,3.2281999999999997,0.3485,-9.3844,0.0156,-0.0066,-0.2086
6.450161254031351,3.2113,0.41819999999999996,-9.4178,0.0202,-0.0057,-0.20879999999999999
6.460161504037601,3.0797999999999996,0.1921,-9.1962,0.0172,-0.0111,-0.2109
6.470161754043851,3.2157999999999998,0.1077,-9.2233,0.0147,-0.011,-0.20879999999999999
6.480162004050102,3.2744,0.2699,-9.3361,0.0181,-0.0072,-0.2092
6.490162254056352,3.2440999999999995,0.4301,-9.504199999999999,0.0231,-0.004,-0.2086
6.500162504062602,3.0698,0.173,-9.2002,0.022,-0.0091,-0.2114
6.510162754068852,3.1652,0.0979,-9.2174,0.0202,-0.0111,-0.20929999999999999
6.520163004075102,3.3147,0.2234,-9.2887,0.0202,-0.008,-0.2097
6.530163254081352,3.2311,0.4075,-9.5387,0.0237,-0.0034999999999999996,-0.2086
6.5401635040876025,3.1155999999999997,0.23779999999999998,-9.2202,0.0259,-0.0068,-0.2113
6.550163754093853,3.1281000000000003,0.09709999999999999,-9.1997,0.022699999999999998,-0.0104,-0.2101
6.560164004100103,3.2724,0.1443,-9.2587,0.0211,-0.0082,-0.2095
6.570164254106353,3.2382,0.3483,-9.451600000000001,0.0243,-0.0042,-0.2092
6.580164504112603,3.1891000000000003,0.313,-9.3587,0.0284,-0.0045000000000000005,-0.2104
6.590164754118853,3.0974,0.10200000000000001,-9.1934,0.024399999999999998,-0.0098,-0.2114
6.600165004125103,3.2495000000000003,0.093,-9.2176,0.0222,-0.0083,-0.2096
6.610165254131354,3.2529000000000003,0.2656,-9.362,0.025799999999999997,-0.0042,-0.2098
6.620165504137604,3.2316999999999996,0.3598,-9.4508,0.0302,-0.0021999999999999997,-0.2096
6.630165754143854,3.0875,0.1132,-9.223099999999999,0.0277,-0.007499999999999999,-0.21189999999999998
6.640166004150104,3.2015000000000002,0.0377,-9.2004,0.0248,-0.0085,-0.2099
6.650166254156354,3.2965,0.20409999999999998,-9.2906,0.0281,-0.0052,-0.21
6.660166504162604,3.2531999999999996,0.3637,-9.4763,0.0329,-0.0014,-0.2094
6.6701667541688545,3.0924,0.1712,-9.194099999999999,0.0336,-0.0059,-0.2114
6.680167004175105,3.1876,0.0561,-9.1613,0.0308,-0.0089,-0.2101
6.690167254181355,3.3137,0.135,-9.262099999999998,0.0312,-0.0059,-0.2098
6.700167504187605,3.2546999999999997,0.3338,-9.4749,0.0373,-0.0015999999999999999,-0.209
6.710167754193855,3.1350000000000002,0.1843,-9.2438,0.0407,-0.0045000000000000005,-0.21150000000000002
6.720168004200105,3.1468999999999996,0.0189,-9.164,0.0402,-0.0081,-0.2102
6.7301682542063554,3.2902,0.0568,-9.2275,0.0426,-0.0056,-0.2101
6.740168504212606,3.2497,0.2494,-9.464,0.0464,-0.0007999999999999999,-0.2092
6.750168754218856,3.1746999999999996,0.23099999999999998,-9.3451,0.0531,-0.0018,-0.2107
6.760169004225106,3.1073,0.0385,-9.1668,0.0514,-0.0073,-0.21150000000000002
6.770169254231356,3.2249,-0.0076,-9.1747,0.05109999999999999,-0.006,-0.2098
6.780169504237606,3.2729,0.1778,-9.2996,0.0563,-0.0023,-0.2099
6.790169754243856,3.2285,0.3176,-9.4182,0.062299999999999994,-0.0,-0.2089
6.8001700042501065,3.1033999999999997,0.11750000000000001,-9.1965,0.060599999999999994,-0.0052,-0.21150000000000002
6.810170254256357,3.2093999999999996,0.0205,-9.173,0.0576,-0.0069,-0.2097
6.820170504262607,3.3159,0.1449,-9.2881,0.0585,-0.0033,-0.2095
6.830170754268857,3.2473,0.3261,-9.4444,0.06459999999999999,0.0005,-0.20909999999999998
6.840171004275107,3.1031,0.1288,-9.2234,0.06509999999999999,-0.0033,-0.2114
6.850171254281357,3.1727,-0.0178,-9.173399999999999,0.063,-0.0062,-0.2101
6.8601715042876075,3.3223000000000003,0.1226,-9.2624,0.06449999999999999,-0.0036,-0.2097
6.870171754293858,3.267,0.33,-9.4917,0.0681,0.0013,-0.20909999999999998
6.880172004300108,3.1268999999999996,0.2026,-9.2194,0.0711,-0.0012000000000000001,-0.2112
6.890172254306358,3.1413999999999995,0.055900000000000005,-9.1381,0.0677,-0.0055,-0.2101
6.900172504312608,3.2822999999999998,0.08099999999999999,-9.2206,0.0658,-0.0033,-0.2094
6.910172754318858,3.2465,0.2684,-9.3925,0.0676,0.0006000000000000001,-0.20879999999999999
6.920173004325108,3.218,0.2771,-9.3597,0.0709,0.0009,-0.20929999999999999
6.930173254331359,3.1186,0.1031,-9.1885,0.067,-0.0042,-0.21059999999999998
6.940173504337609,3.2141999999999995,0.032,-9.1398,0.0643,-0.0046,-0.2095
6.950173754343859,3.3158,0.1792,-9.325,0.0656,-0.00039999999999999996,-0.20879999999999999
6.960174004350109,3.2359,0.314,-9.4055,0.0717,0.0021999999999999997,-0.20879999999999999
6.970174254356359,3.1091,0.10289999999999999,-9.168,0.06989999999999999,-0.0026,-0.2112
6.980174504362609,3.1868,0.0024000000000000002,-9.152299999999999,0.0681,-0.004399999999999999,-0.2089
6.9901747543688595,3.3262,0.1452,-9.281,0.07039999999999999,-0.0009,-0.20909999999999998
7.00017500437511,3.2326,0.2888,-9.4264,0.0749,0.0025,-0.20839999999999997
7.01017525438136,3.1199999999999997,0.1569,-9.1708,0.0779,-0.0014,-0.2105
7.02017550438761,3.1454000000000004,0.0165,-9.1004,0.07579999999999999,-0.0053,-0.2095
7.03017575439386,3.3056,0.048999999999999995,-9.1753,0.0769,-0.0025,-0.2086
7.04017600440011,3.2491,0.265,-9.3864,0.0828,0.0015999999999999999,-0.2082
7.05017625440636,3.1704000000000003,0.18339999999999998,-9.2152,0.088,0.00030000000000000003,-0.2097
7.060176504412611,3.124,0.0155,-9.113999999999999,0.0876,-0.004699999999999999,-0.2096
7.070176754418861,3.2777,0.0362,-9.1173,0.0895,-0.0036,-0.20879999999999999
7.080177004425111,3.2802,0.23909999999999998,-9.3369,0.0942,0.0009,-0.20809999999999998
7.090177254431361,3.2126,0.3176,-9.2987,0.10039999999999999,0.0017,-0.20839999999999997
7.100177504437611,3.1413,0.12240000000000001,-9.1549,0.0967,-0.0034999999999999996,-0.2096
7.110177754443861,3.2194,0.0369,-9.116299999999999,0.0958,-0.0043,-0.2082
7.1201780044501115,3.2885999999999997,0.201,-9.2473,0.09899999999999999,-0.0007999999999999999,-0.2083
7.130178254456362,3.254,0.31329999999999997,-9.3726,0.1043,0.0026999999999999997,-0.2076
7.140178504462612,3.0898,0.0952,-9.1511,0.1043,-0.0021999999999999997,-0.2101
7.150178754468862,3.1912999999999996,0.0567,-9.1175,0.104,-0.0045000000000000005,-0.20779999999999998
7.160179004475112,3.3223999999999996,0.1798,-9.2436,0.1051,-0.0019,-0.2083
7.170179254481362,3.2571000000000003,0.3677,-9.421899999999999,0.11009999999999999,0.0021999999999999997,-0.20679999999999998
7.180179504487612,3.1268,0.22369999999999998,-9.1763,0.11069999999999999,-0.0012000000000000001,-0.20909999999999998
7.190179754493863,3.1552,0.122,-9.106599999999998,0.1083,-0.0048000000000000004,-0.20739999999999997
7.200180004500113,3.3293999999999997,0.1915,-9.2166,0.10629999999999999,-0.0026999999999999997,-0.2072
7.210180254506363,3.2523000000000004,0.3225,-9.423499999999999,0.108,0.002,-0.2066
7.220180504512613,3.1717,0.23869999999999997,-9.2256,0.1121,9.999999999999999e-05,-0.2082
7.230180754518863,3.1363000000000003,0.10540000000000001,-9.109,0.1115,-0.0048000000000000004,-0.20809999999999998
7.240181004525113,3.2582,0.1275,-9.1188,0.1111,-0.0028,-0.2072
7.2501812545313635,3.2805,0.27299999999999996,-9.3346,0.1131,0.0018,-0.20669999999999997
7.260181504537614,3.2144,0.3544,-9.3598,0.11800000000000001,0.0029,-0.2066
7.270181754543864,3.1165000000000003,0.19970000000000002,-9.177200000000001,0.1142,-0.0031,-0.20839999999999997
7.280182004550114,3.2264,0.11919999999999999,-9.1267,0.1122,-0.0041,-0.20679999999999998
7.290182254556364,3.2874,0.22019999999999998,-9.2475,0.11529999999999999,-0.00030000000000000003,-0.20669999999999997
7.300182504562614,3.2597,0.39690000000000003,-9.3896,0.1211,0.0031,-0.2056
7.3101827545688645,3.1007,0.21589999999999998,-9.13,0.1204,-0.0014,-0.2079
7.320183004575115,3.193,0.1307,-9.1251,0.1191,-0.0038,-0.20600000000000002
7.330183254581365,3.3223000000000003,0.2373,-9.205,0.121,-0.0015999999999999999,-0.2063
7.340183504587615,3.2654,0.4061,-9.417499999999999,0.12489999999999998,0.0021999999999999997,-0.2052
7.350183754593865,3.146,0.28700000000000003,-9.1575,0.1281,-0.0006000000000000001,-0.2073
7.360184004600115,3.1822000000000004,0.18689999999999998,-9.0968,0.12789999999999999,-0.0041,-0.20639999999999997
7.370184254606365,3.3035,0.1934,-9.1653,0.1276,-0.0017,-0.2056
7.3801845046126155,3.2589,0.3861,-9.3315,0.1333,0.002,-0.20479999999999998
7.390184754618866,3.2053,0.4012,-9.2416,0.1392,0.0010999999999999998,-0.20579999999999998
7.400185004625116,3.1353999999999997,0.2349,-9.1014,0.136,-0.0034999999999999996,-0.20600000000000002
7.410185254631366,3.2497,0.2075,-9.114899999999999,0.1351,-0.0029,-0.20509999999999998
7.420185504637616,3.2745,0.3742,-9.2643,0.1367,0.001,-0.20439999999999997
7.430185754643866,3.2451,0.4483,-9.314400000000001,0.1409,0.0025,-0.2043
7.4401860046501165,3.1226,0.29979999999999996,-9.1442,0.1387,-0.0021,-0.20569999999999997
7.450186254656367,3.2192,0.2099,-9.1273,0.1358,-0.0034,-0.20479999999999998
7.460186504662617,3.2803,0.3513,-9.200999999999999,0.1369,-0.0009,-0.2042
7.470186754668867,3.2936,0.4968,-9.381599999999999,0.14029999999999998,0.0026999999999999997,-0.2035
7.480187004675117,3.0974999999999997,0.3427,-9.116200000000001,0.1404,-0.0012000000000000001,-0.20569999999999997
7.490187254681367,3.1946000000000003,0.2697,-9.089500000000001,0.1369,-0.004,-0.20400000000000001
7.500187504687617,3.3156,0.3313,-9.19,0.136,-0.0017,-0.20370000000000002
7.510187754693868,3.2788999999999997,0.5258999999999999,-9.417,0.14029999999999998,0.0025,-0.203
7.520188004700118,3.1359999999999997,0.4228,-9.1632,0.1397,-0.0005,-0.20500000000000002
7.530188254706368,3.1662000000000003,0.29750000000000004,-9.0727,0.1368,-0.004399999999999999,-0.20370000000000002
7.540188504712618,3.2960999999999996,0.3236,-9.1425,0.1348,-0.0028,-0.20379999999999998
7.550188754718868,3.2703,0.5135,-9.379800000000001,0.1355,0.0025,-0.202
7.560189004725118,3.1877999999999997,0.5035000000000001,-9.2609,0.1378,0.0014,-0.20400000000000001
7.5701892547313685,3.1341,0.3536,-9.0852,0.133,-0.0043,-0.20409999999999998
7.580189504737619,3.2651,0.2985,-9.105,0.1298,-0.0036999999999999997,-0.2033
7.590189754743869,3.2733999999999996,0.5038,-9.2181,0.1316,0.00030000000000000003,-0.2022
7.600190004750119,3.2694,0.623,-9.3363,0.134,0.0026999999999999997,-0.20209999999999997
7.610190254756369,3.0995,0.3909,-9.098799999999999,0.1286,-0.0028,-0.2043
7.620190504762619,3.2224999999999997,0.3546,-9.094199999999999,0.1252,-0.0048000000000000004,-0.20209999999999997
7.630190754768869,3.3230000000000004,0.4989,-9.214,0.1242,-0.0019,-0.20240000000000002
7.64019100477512,3.2668999999999997,0.6193,-9.355599999999999,0.1253,0.0015999999999999999,-0.2016
7.65019125478137,3.1332999999999998,0.446,-9.1057,0.12340000000000001,-0.0021999999999999997,-0.2036
7.66019150478762,3.1836,0.382,-9.0541,0.1203,-0.0052,-0.2022
7.67019175479387,3.3209,0.451,-9.142999999999999,0.11750000000000001,-0.0031,-0.20179999999999998
7.680192004800121,3.2697999999999996,0.6035,-9.372,0.11950000000000001,0.0014,-0.201
7.690192254806371,3.1858999999999997,0.532,-9.1933,0.12019999999999999,-0.0007999999999999999,-0.20279999999999998
7.700192504812621,3.1555,0.4196,-9.069099999999999,0.1163,-0.0056,-0.2019
7.710192754818872,3.2951,0.4250999999999999,-9.1059,0.11410000000000001,-0.004699999999999999,-0.20140000000000002
7.720193004825122,3.2798,0.606,-9.299999999999999,0.11499999999999999,-0.0006000000000000001,-0.2003
7.730193254831372,3.2367,0.599,-9.2271,0.117,-0.0006000000000000001,-0.2012
7.740193504837622,3.138,0.4537,-9.0862,0.11349999999999999,-0.0059,-0.2019
7.750193754843872,3.2571000000000003,0.4188,-9.065900000000001,0.1103,-0.0065,-0.2009
7.760194004850122,3.2956,0.547,-9.185500000000001,0.1114,-0.0031,-0.2003
7.7701942548563725,3.277,0.6630999999999999,-9.2973,0.11529999999999999,-0.0006000000000000001,-0.1998
7.780194504862623,3.1452,0.505,-9.1014,0.1124,-0.0052,-0.2019
7.790194754868873,3.2344999999999997,0.4012,-9.0716,0.10889999999999998,-0.007499999999999999,-0.20040000000000002
7.800195004875123,3.3175999999999997,0.5309999999999999,-9.171899999999999,0.1092,-0.0049,-0.2002
7.810195254881373,3.2872999999999997,0.6728,-9.3271,0.1117,-0.0010999999999999998,-0.1996
7.820195504887623,3.1371,0.5107999999999999,-9.1093,0.11009999999999999,-0.0048000000000000004,-0.2013
7.830195754893873,3.2146,0.45319999999999994,-9.055100000000001,0.1075,-0.0081,-0.1999
7.840196004900124,3.3416,0.5137,-9.1922,0.10439999999999999,-0.006,-0.2
7.850196254906374,3.2359999999999998,0.6622,-9.3272,0.10590000000000001,-0.0024000000000000002,-0.1986
7.860196504912624,3.2327,0.5813999999999999,-9.1573,0.10640000000000001,-0.0049,-0.201
7.870196754918874,3.1538999999999997,0.4613,-9.0726,0.10369999999999999,-0.009000000000000001,-0.2001
7.880197004925124,3.2868,0.47109999999999996,-9.104,0.1021,-0.0078,-0.1998
7.890197254931374,3.2782999999999998,0.6162,-9.2685,0.1018,-0.0043,-0.1991
7.9001975049376245,3.2729,0.6567,-9.295,0.1036,-0.0034999999999999996,-0.1993
7.910197754943875,3.1433999999999997,0.5095,-9.1085,0.0994,-0.008799999999999999,-0.2013
7.920198004950125,3.2426000000000004,0.4471,-9.0861,0.0948,-0.009600000000000001,-0.1998
7.930198254956375,3.3387,0.5549,-9.2619,0.0936,-0.0059,-0.19970000000000002
7.940198504962625,3.2710000000000004,0.6809,-9.3321,0.0968,-0.0034,-0.1994
7.950198754968875,3.1556,0.5285,-9.1123,0.0934,-0.007899999999999999,-0.20110000000000003
7.9601990049751254,3.215,0.46629999999999994,-9.0915,0.09129999999999999,-0.0101,-0.19949999999999998
7.970199254981376,3.3425000000000002,0.5522,-9.199,0.0887,-0.007499999999999999,-0.1999
7.980199504987626,3.2845,0.7017,-9.3905,0.0892,-0.0039,-0.19849999999999998
7.990199754993876,3.1900999999999997,0.564,-9.1251,0.0892,-0.0077,-0.2013
8.000200005000126,3.1954000000000002,0.4965,-9.077300000000001,0.0867,-0.0112,-0.19970000000000002
8.010200255006376,3.3305000000000002,0.5009,-9.159,0.0849,-0.0092,-0.19970000000000002
8.020200505012626,3.2842999999999996,0.6662,-9.3003,0.08689999999999999,-0.0056,-0.199
8.030200755018877,3.2585,0.6549,-9.243500000000001,0.08940000000000001,-0.0063999999999999994,-0.2001
8.040201005025127,3.1601999999999997,0.4981,-9.0676,0.086,-0.0117,-0.201
8.050201255031377,3.2973000000000003,0.47809999999999997,-9.109,0.0833,-0.0105,-0.1996
8.060201505037627,3.3126999999999995,0.5725,-9.2259,0.0857,-0.006999999999999999,-0.2
8.070201755043877,3.3033,0.6999,-9.36,0.0887,-0.005,-0.199
8.080202005050127,3.1475000000000004,0.5099,-9.0991,0.0872,-0.0101,-0.20170000000000002
8.090202255056377,3.2619000000000002,0.4547,-9.1123,0.0842,-0.0117,-0.1996
8.100202505062628,3.3515,0.5633,-9.177100000000001,0.0854,-0.0089,-0.1996
8.110202755068878,3.3348999999999998,0.7241,-9.4078,0.0886,-0.0052,-0.1993
8.120203005075128,3.1523000000000003,0.5361,-9.1068,0.0888,-0.0093,-0.20110000000000003
8.130203255081378,3.2447999999999997,0.4527,-9.0945,0.0872,-0.0125,-0.2001
8.140203505087628,3.3545,0.4988,-9.165099999999999,0.0865,-0.0103,-0.2002
8.150203755093878,3.3289,0.7101,-9.428,0.0902,-0.0060999999999999995,-0.199
8.160204005100129,3.2259999999999995,0.6408999999999999,-9.1918,0.0924,-0.0084,-0.2013
8.170204255106379,3.2096999999999998,0.5212,-9.0954,0.0896,-0.012799999999999999,-0.2006
8.180204505112629,3.3516999999999997,0.5079,-9.1486,0.08589999999999999,-0.0112,-0.2003
8.190204755118879,3.3244000000000002,0.6871,-9.3266,0.0875,-0.0068,-0.1992
8.20020500512513,3.3000000000000003,0.7193999999999999,-9.293,0.0911,-0.0067,-0.2003
8.21020525513138,3.1776,0.5605,-9.126299999999999,0.08639999999999999,-0.0118,-0.201
8.22020550513763,3.3135,0.4957,-9.1479,0.082,-0.0114,-0.2003
8.23020575514388,3.3508999999999998,0.6624,-9.2793,0.08059999999999999,-0.007499999999999999,-0.1996
8.24020600515013,3.3432000000000004,0.7652,-9.4316,0.08149999999999999,-0.0046,-0.19949999999999998
8.25020625515638,3.1772,0.5480999999999999,-9.188799999999999,0.0781,-0.0091,-0.202
8.26020650516263,3.2601999999999998,0.489,-9.1815,0.0744,-0.0107,-0.2002
8.27020675516888,3.3783,0.5909,-9.2672,0.0718,-0.007899999999999999,-0.20049999999999998
8.28020700517513,3.3219,0.7148,-9.457899999999999,0.0739,-0.004399999999999999,-0.1998
8.29020725518138,3.1940999999999997,0.5662999999999999,-9.1822,0.07569999999999999,-0.0083,-0.202
8.30020750518763,3.2297,0.5206,-9.1098,0.0731,-0.0116,-0.20070000000000002
8.31020775519388,3.3705,0.513,-9.2047,0.06989999999999999,-0.0092,-0.201
8.320208005200131,3.3293999999999997,0.7036,-9.3644,0.0722,-0.0050999999999999995,-0.1992
8.330208255206381,3.2908,0.7293,-9.3028,0.07629999999999999,-0.0063999999999999994,-0.2012
8.340208505212631,3.2087,0.5555,-9.1493,0.0686,-0.0113,-0.2016
8.350208755218882,3.3541,0.4692,-9.161999999999999,0.0656,-0.0098,-0.2009
8.360209005225132,3.3352,0.617,-9.263,0.0675,-0.0059,-0.2009
8.370209255231382,3.3681999999999994,0.7463,-9.4248,0.07039999999999999,-0.0028,-0.2001
8.380209505237632,3.183,0.5127999999999999,-9.135,0.06949999999999999,-0.0083,-0.2033
8.390209755243882,3.2824,0.46709999999999996,-9.1528,0.0664,-0.008799999999999999,-0.2012
8.400210005250132,3.4114999999999998,0.5902,-9.2461,0.06449999999999999,-0.005399999999999999,-0.201
8.410210255256382,3.3265999999999996,0.8200999999999999,-9.427299999999999,0.06999999999999999,-0.0021,-0.2
8.420210505262633,3.209,0.5868,-9.1743,0.068,-0.0063,-0.2032
8.430210755268883,3.2428999999999997,0.4209,-9.1333,0.0631,-0.0092,-0.20140000000000002
8.440211005275133,3.4258999999999995,0.5189,-9.2494,0.0626,-0.0063,-0.201
8.450211255281383,3.345,0.7586999999999999,-9.4566,0.0667,-0.002,-0.20070000000000002
8.460211505287633,3.2754,0.6281,-9.2568,0.06849999999999999,-0.0043,-0.2026
8.470211755293883,3.2157999999999998,0.45319999999999994,-9.1374,0.06620000000000001,-0.0091,-0.20249999999999999
8.480212005300134,3.3899,0.47759999999999997,-9.1958,0.0631,-0.0068,-0.20170000000000002
8.490212255306384,3.359,0.6817,-9.3247,0.0661,-0.0028,-0.20110000000000003
8.500212505312634,3.3343,0.7224999999999999,-9.3521,0.07150000000000001,-0.0019,-0.202
8.510212755318884,3.1951,0.5078,-9.1309,0.0675,-0.0072,-0.20339999999999997
8.520213005325134,3.347,0.4286,-9.1625,0.063,-0.0069,-0.20179999999999998
8.530213255331384,3.4025,0.6408999999999999,-9.2576,0.0649,-0.0033,-0.20170000000000002
8.540213505337634,3.356,0.8212,-9.422899999999998,0.0689,-0.00019999999999999998,-0.20110000000000003
8.550213755343885,3.1857,0.5335,-9.106300000000001,0.066,-0.0052,-0.20400000000000001
8.560214005350135,3.2904999999999998,0.41850000000000004,-9.145499999999998,0.0602,-0.0072,-0.20170000000000002
8.570214255356385,3.4295999999999998,0.6073000000000001,-9.2161,0.061,-0.0039,-0.20170000000000002
8.580214505362635,3.3769,0.8132999999999999,-9.4723,0.0635,0.0005,-0.20149999999999998
8.590214755368885,3.2287999999999997,0.6059,-9.150899999999998,0.06369999999999999,-0.003,-0.2036
8.600215005375135,3.2736,0.4443,-9.0909,0.059000000000000004,-0.0069,-0.2029
8.610215255381386,3.411,0.5397,-9.2056,0.0558,-0.0034,-0.2019
8.620215505387636,3.3647000000000005,0.7815000000000001,-9.393799999999999,0.057499999999999996,0.00019999999999999998,-0.20140000000000002
8.630215755393886,3.2973000000000003,0.731,-9.270299999999999,0.0582,-0.0007999999999999999,-0.20249999999999999
8.640216005400136,3.2211999999999996,0.47089999999999993,-9.129199999999999,0.0509,-0.006,-0.2036
8.650216255406386,3.3980999999999995,0.4775,-9.2004,0.0452,-0.0045000000000000005,-0.202
8.660216505412636,3.3987000000000003,0.7289,-9.3369,0.047,-0.00019999999999999998,-0.20140000000000002
8.670216755418886,3.343,0.7888,-9.3521,0.049499999999999995,0.00039999999999999996,-0.2022
8.680217005425137,3.2259999999999995,0.5066,-9.116,0.0429,-0.0048000000000000004,-0.2035
8.690217255431387,3.3547,0.41359999999999997,-9.161900000000001,0.037399999999999996,-0.0050999999999999995,-0.20209999999999997
8.700217505437637,3.4175999999999997,0.6483,-9.2457,0.0375,-0.0014,-0.2016
8.710217755443887,3.3768,0.7778,-9.3859,0.0409,0.0014,-0.2016
8.720218005450137,3.2204,0.5009,-9.1325,0.038400000000000004,-0.0031999999999999997,-0.2042
8.730218255456387,3.3226999999999998,0.3976,-9.1358,0.0334,-0.0050999999999999995,-0.20249999999999999
8.740218505462638,3.4521,0.5766,-9.222,0.031,-0.002,-0.2023
8.750218755468888,3.3727,0.7978999999999999,-9.4669,0.033,0.0021999999999999997,-0.20110000000000003
8.760219005475138,3.2766,0.589,-9.1516,0.0322,-0.0015,-0.2043
8.770219255481388,3.2813000000000003,0.40080000000000005,-9.1035,0.026,-0.0052,-0.20249999999999999
8.780219505487638,3.4306,0.48219999999999996,-9.1884,0.0248,-0.0024000000000000002,-0.202
8.790219755493888,3.382,0.7343,-9.3629,0.026,0.0017,-0.201
8.800220005500138,3.3264,0.6567,-9.256599999999999,0.0292,0.0006000000000000001,-0.2026
8.810220255506389,3.2411000000000003,0.3986,-9.1023,0.0229,-0.0050999999999999995,-0.20400000000000001
8.820220505512639,3.3876999999999997,0.3899,-9.1364,0.0197,-0.0038,-0.202
8.830220755518889,3.3972,0.5924999999999999,-9.272,0.0228,-0.00030000000000000003,-0.2023
8.84022100552514,3.3886,0.6989000000000001,-9.356,0.0277,0.0015,-0.2019
8.85022125553139,3.2349,0.4325,-9.1388,0.0242,-0.0036999999999999997,-0.2043
8.86022150553764,3.3655999999999997,0.3522,-9.148299999999999,0.019799999999999998,-0.0043,-0.2023
8.87022175554389,3.4217999999999997,0.5353,-9.212299999999999,0.0221,-0.0015999999999999999,-0.2023
8.88022200555014,3.4168999999999996,0.6968,-9.4183,0.0262,0.0024000000000000002,-0.2016
8.89022225555639,3.2297,0.42110000000000003,-9.1388,0.026,-0.0015999999999999999,-0.20409999999999998
8.90022250556264,3.3307,0.2893,-9.1344,0.023,-0.0039,-0.2023
8.91022275556889,3.4591999999999996,0.4644,-9.2506,0.0234,-0.0014,-0.20209999999999997
8.92022300557514,3.3827000000000003,0.6749999999999999,-9.4145,0.0275,0.0021999999999999997,-0.2016
8.93022325558139,3.2866,0.5096999999999999,-9.1593,0.028499999999999998,-0.0014,-0.20409999999999998
8.94022350558764,3.3009999999999997,0.3157,-9.0984,0.024499999999999997,-0.0052,-0.2032
8.95022375559389,3.4318,0.3786,-9.1729,0.023299999999999998,-0.0025,-0.20249999999999999
8.960224005600141,3.398,0.5886,-9.3507,0.026899999999999997,0.0013,-0.20179999999999998
8.970224255606391,3.3338,0.5381,-9.247,0.0315,9.999999999999999e-05,-0.20339999999999997
8.980224505612641,3.2857999999999996,0.34290000000000004,-9.121,0.028999999999999998,-0.0046,-0.20339999999999997
8.990224755618891,3.4223999999999997,0.2999,-9.1335,0.0294,-0.0036999999999999997,-0.203
9.000225005625142,3.4025,0.5176,-9.2721,0.0327,-9.999999999999999e-05,-0.20170000000000002
9.010225255631392,3.4097,0.6112,-9.313,0.040299999999999996,0.0010999999999999998,-0.2023
9.020225505637642,3.2440999999999995,0.33449999999999996,-9.0999,0.0372,-0.0036999999999999997,-0.2045
9.030225755643892,3.3709000000000002,0.2678,-9.143999999999998,0.0351,-0.0034,-0.202
9.040226005650142,3.4434,0.47869999999999996,-9.2471,0.038,-0.00019999999999999998,-0.20249999999999999
9.050226255656392,3.4181000000000004,0.6109,-9.415,0.0423,0.0029,-0.2016
9.060226505662643,3.2653,0.366,-9.1444,0.0419,-0.002,-0.20439999999999997
9.070226755668893,3.3348999999999998,0.2761,-9.1276,0.0415,-0.004,-0.2022
9.080227005675143,3.4509999999999996,0.4087,-9.202200000000001,0.0426,-0.0015,-0.20240000000000002
9.090227255681393,3.4172000000000002,0.5765,-9.4055,0.046299999999999994,0.0021999999999999997,-0.20140000000000002
9.100227505687643,3.2977,0.4012,-9.1891,0.0503,-0.0005,-0.20400000000000001
9.110227755693893,3.3072999999999997,0.30419999999999997,-9.139999999999999,0.0493,-0.0039,-0.2026
9.120228005700143,3.4444000000000004,0.3107,-9.2019,0.0478,-0.0021999999999999997,-0.20270000000000002
9.130228255706394,3.4089,0.4888,-9.3668,0.0526,0.0018,-0.2016
9.140228505712644,3.37,0.5249,-9.3155,0.05910000000000001,0.0017,-0.20279999999999998
9.150228755718894,3.2739999999999996,0.3273,-9.1549,0.0558,-0.0031,-0.2035
9.160229005725144,3.3991,0.24880000000000002,-9.1624,0.0541,-0.0024000000000000002,-0.20209999999999997
9.170229255731394,3.4335999999999998,0.441,-9.2656,0.059699999999999996,0.0015999999999999999,-0.2019
9.180229505737644,3.4204,0.5704,-9.394,0.0654,0.0043,-0.2016
9.190229755743895,3.2319,0.2976,-9.1729,0.06459999999999999,-0.0005,-0.2039
9.200230005750145,3.3794999999999997,0.23700000000000002,-9.18,0.06459999999999999,-0.0015,-0.2022
9.210230255756395,3.4364,0.3649,-9.2594,0.0663,0.0012000000000000001,-0.20270000000000002
9.220230505762645,3.4233,0.5639,-9.4371,0.0722,0.0050999999999999995,-0.20110000000000003
9.230230755768895,3.2621999999999995,0.38489999999999996,-9.1766,0.0749,0.0013,-0.2043
9.240231005775145,3.3051999999999997,0.23879999999999998,-9.1153,0.0726,-0.0010999999999999998,-0.2026
9.250231255781395,3.4714,0.31029999999999996,-9.2223,0.0726,0.0009,-0.20240000000000002
9.260231505787646,3.4065,0.561,-9.420499999999999,0.0782,0.0052,-0.2013
9.270231755793896,3.3167,0.45180000000000003,-9.2111,0.0814,0.0031,-0.20379999999999998
9.280232005800146,3.2937,0.2719,-9.142,0.0798,-0.0005,-0.20279999999999998
9.290232255806396,3.4231999999999996,0.2486,-9.1785,0.0786,0.0012000000000000001,-0.2026
9.300232505812646,3.4226,0.4895,-9.3667,0.0822,0.0057,-0.2012
9.310232755818896,3.3558999999999997,0.5494,-9.2867,0.0899,0.0056,-0.2029
9.320233005825147,3.2533,0.3184,-9.1305,0.0861,0.0007,-0.20400000000000001
9.330233255831397,3.3903000000000003,0.20539999999999997,-9.131699999999999,0.0832,0.0015999999999999999,-0.2023
9.340233505837647,3.4361999999999995,0.43839999999999996,-9.2555,0.0881,0.0052,-0.2022
9.350233755843897,3.4156999999999997,0.6324,-9.3856,0.0936,0.008,-0.20170000000000002
9.360234005850147,3.2388,0.3663,-9.1547,0.0919,0.0034999999999999996,-0.20439999999999997
9.370234255856397,3.3482,0.2085,-9.1411,0.0886,0.002,-0.2026
9.380234505862648,3.4762,0.4132,-9.278500000000001,0.0896,0.0052,-0.2016
9.390234755868898,3.4114,0.6282,-9.4419,0.0957,0.0087,-0.2019
9.400235005875148,3.2664999999999997,0.40369999999999995,-9.170300000000001,0.0962,0.005,-0.20439999999999997
9.410235255881398,3.3177,0.21259999999999998,-9.1114,0.0933,0.0024000000000000002,-0.20279999999999998
9.420235505887648,3.4589000000000003,0.3461,-9.212299999999999,0.0936,0.005399999999999999,-0.2023
9.430235755893898,3.3854,0.6021,-9.3958,0.09779999999999998,0.0095,-0.2013
9.440236005900148,3.3192,0.5372,-9.246699999999999,0.10169999999999998,0.0076,-0.2033
9.450236255906399,3.277,0.29169999999999996,-9.129,0.0964,0.0033,-0.2036
9.460236505912649,3.4201,0.3036,-9.190299999999999,0.0934,0.0050999999999999995,-0.2022
9.470236755918899,3.4210999999999996,0.5408999999999999,-9.333,0.09759999999999999,0.0092,-0.2022
9.480237005925149,3.3547,0.5888,-9.323599999999999,0.10189999999999999,0.0103,-0.20240000000000002
9.4902372559314,3.2601999999999998,0.3282,-9.139,0.09899999999999999,0.005399999999999999,-0.20409999999999998
9.50023750593765,3.3645,0.2625,-9.133,0.0959,0.0050999999999999995,-0.20279999999999998
9.5102377559439,3.4370999999999996,0.4875,-9.2555,0.0981,0.009000000000000001,-0.20209999999999997
9.52023800595015,3.3959999999999995,0.6708000000000001,-9.36,0.10369999999999999,0.0117,-0.202
9.5302382559564,3.2333,0.40509999999999996,-9.1073,0.10070000000000001,0.0073999999999999995,-0.2043
9.54023850596265,3.3472,0.26489999999999997,-9.1324,0.0964,0.0059,-0.20240000000000002
9.5502387559689,3.453,0.4783,-9.2052,0.09759999999999999,0.0083,-0.20209999999999997
9.56023900597515,3.4158,0.7158,-9.3911,0.10039999999999999,0.0118,-0.2012
9.5702392559814,3.2569,0.4910999999999999,-9.1114,0.1005,0.0085,-0.20400000000000001
9.58023950598765,3.3108999999999997,0.2809,-9.0678,0.0963,0.005399999999999999,-0.20309999999999997
9.5902397559939,3.4646999999999997,0.4237,-9.178799999999999,0.0944,0.0081,-0.20149999999999998
9.600240006000151,3.4075,0.6684,-9.3638,0.0981,0.012,-0.2019
9.610240256006401,3.3024999999999998,0.5622,-9.141,0.10039999999999999,0.009899999999999999,-0.2032
9.620240506012651,3.308,0.3406,-9.0959,0.0954,0.006,-0.20279999999999998
9.630240756018901,3.4193000000000002,0.38049999999999995,-9.1184,0.0937,0.0078,-0.20240000000000002
9.640241006025152,3.4154999999999998,0.6406000000000001,-9.325,0.0942,0.012,-0.20079999999999998
9.650241256031402,3.3501000000000003,0.6565,-9.2392,0.0991,0.012199999999999999,-0.202
9.660241506037652,3.2687,0.39599999999999996,-9.0995,0.0938,0.0069,-0.2033
9.670241756043902,3.3793999999999995,0.3044,-9.1202,0.09079999999999999,0.0071,-0.20140000000000002
9.680242006050152,3.4256,0.6049,-9.2571,0.0948,0.0106,-0.2006
9.690242256056402,3.3989,0.7105,-9.293800000000001,0.1003,0.0125,-0.2012
9.700242506062652,3.2379,0.4291,-9.0952,0.0973,0.0076,-0.2029
9.710242756068903,3.3431,0.3063,-9.0528,0.0953,0.0058,-0.2016
9.720243006075153,3.4583000000000004,0.5075999999999999,-9.206999999999999,0.0963,0.0091,-0.2012
9.730243256081403,3.3973000000000004,0.6775,-9.335799999999999,0.10239999999999999,0.012899999999999998,-0.20070000000000002
9.740243506087653,3.2446,0.4729,-9.113999999999999,0.10369999999999999,0.0093,-0.203
9.750243756093903,3.3187,0.3305,-9.0857,0.10239999999999999,0.0063999999999999994,-0.2012
9.760244006100153,3.4493,0.4638,-9.1913,0.1023,0.0082,-0.2013
9.770244256106404,3.3859,0.6799000000000001,-9.3265,0.10690000000000001,0.012,-0.1999
9.780244506112654,3.3131,0.5546,-9.1252,0.11009999999999999,0.009899999999999999,-0.2026
9.790244756118904,3.2842000000000002,0.4289,-9.0546,0.10729999999999999,0.0065,-0.2009
9.800245006125154,3.4171,0.417,-9.137099999999998,0.1048,0.0084,-0.2012
9.810245256131404,3.3772999999999995,0.6259,-9.2738,0.106,0.0121,-0.19949999999999998
9.820245506137654,3.3688000000000002,0.6529,-9.2493,0.111,0.0116,-0.2009
9.830245756143905,3.2486,0.4618,-9.097299999999999,0.10679999999999999,0.0068,-0.20209999999999997
9.840246006150155,3.36,0.3928,-9.0697,0.1047,0.0067,-0.2012
9.850246256156405,3.4236999999999997,0.5667,-9.1718,0.1065,0.0098,-0.20049999999999998
9.860246506162655,3.3998,0.7314,-9.307799999999999,0.1117,0.0125,-0.1998
9.870246756168905,3.261,0.5205000000000001,-9.098199999999999,0.1083,0.0083,-0.20270000000000002
9.880247006175155,3.3407999999999998,0.3975,-9.1108,0.1051,0.0067,-0.20040000000000002
9.890247256181405,3.4146999999999994,0.5707,-9.179499999999999,0.1056,0.0085,-0.2003
9.900247506187656,3.4165,0.7494,-9.317599999999999,0.10709999999999999,0.0116,-0.19970000000000002
9.910247756193906,3.2664,0.5603,-9.092699999999999,0.107,0.0086,-0.20179999999999998
9.920248006200156,3.311,0.44520000000000004,-9.031799999999999,0.1046,0.0058,-0.2006
9.930248256206406,3.4469,0.5403,-9.155299999999999,0.10200000000000001,0.0085,-0.19970000000000002
9.940248506212656,3.3785999999999996,0.7175,-9.2979,0.105,0.0119,-0.1993
9.950248756218906,3.3193,0.6582,-9.1547,0.10709999999999999,0.0098,-0.201
9.960249006225157,3.2712999999999997,0.48510000000000003,-9.045599999999999,0.1026,0.0050999999999999995,-0.2006
9.970249256231407,3.4105000000000003,0.48419999999999996,-9.077300000000001,0.10089999999999999,0.0063999999999999994,-0.2003
9.980249506237657,3.4054,0.6780999999999999,-9.2511,0.1026,0.0105,-0.1993
9.990249756243907,3.359,0.7021999999999999,-9.2118,0.10679999999999999,0.0105,-0.2002
10.000250006250157,3.2482999999999995,0.522,-9.051499999999999,0.10239999999999999,0.0052,-0.2013
10.010250256256407,3.3758999999999997,0.46509999999999996,-9.0383,0.0995,0.0048000000000000004,-0.1998
10.020250506262657,3.4457,0.6629,-9.22,0.1003,0.0085,-0.1994
10.030250756268908,3.3763,0.7845,-9.2622,0.10269999999999999,0.0107,-0.1992
10.040251006275158,3.2479,0.5608,-9.0753,0.0982,0.0062,-0.2012
10.050251256281408,3.3215,0.4979,-9.0272,0.0951,0.0043,-0.1993
10.060251506287658,3.4637000000000002,0.63,-9.1808,0.092,0.0071,-0.1994
10.070251756293908,3.3722000000000003,0.7642,-9.3014,0.0944,0.01,-0.1984
10.080252006300158,3.2724999999999995,0.5976,-9.0663,0.0948,0.006,-0.20140000000000002
10.090252256306409,3.2979000000000003,0.5332,-9.0065,0.09219999999999999,0.0033,-0.1993
10.100252506312659,3.4207,0.5522,-9.1123,0.089,0.0052,-0.1999
10.110252756318909,3.3876000000000004,0.7394999999999999,-9.278699999999999,0.091,0.0089,-0.19799999999999998
10.120253006325159,3.3499,0.7054,-9.198099999999998,0.0944,0.007499999999999999,-0.20040000000000002
10.13025325633141,3.2558,0.5638,-9.0552,0.0896,0.0024000000000000002,-0.2002
10.14025350633766,3.3957,0.5095999999999999,-9.0647,0.0875,0.0033,-0.1992
10.15025375634391,3.4097,0.6756,-9.212399999999999,0.0905,0.0069,-0.1988
10.16025400635016,3.3815999999999997,0.7574,-9.2386,0.0938,0.008,-0.1988
10.17025425635641,3.2453999999999996,0.5744,-9.0543,0.0914,0.0033,-0.2003
10.18025450636266,3.3558999999999997,0.504,-9.0596,0.0889,0.0023,-0.1988
10.19025475636891,3.4254,0.6515,-9.1547,0.0899,0.0050999999999999995,-0.19849999999999998
10.20025500637516,3.401,0.7818999999999999,-9.315900000000001,0.094,0.007899999999999999,-0.1984
10.21025525638141,3.238,0.6011,-9.087399999999999,0.0937,0.0036999999999999997,-0.2002
10.22025550638766,3.3226,0.5124,-9.0442,0.09129999999999999,0.0009,-0.1987
10.23025575639391,3.4449,0.6205999999999999,-9.1412,0.0915,0.0033,-0.1988
10.24025600640016,3.395,0.7926000000000001,-9.3248,0.0941,0.006999999999999999,-0.1981
10.250256256406411,3.2854,0.6492,-9.0921,0.09430000000000001,0.0042,-0.2
10.260256506412661,3.3057999999999996,0.5447,-9.036,0.0919,0.0005,-0.199
10.270256756418911,3.4361999999999995,0.5809,-9.1128,0.0896,0.0024000000000000002,-0.1986
10.280257006425161,3.3794999999999997,0.7459,-9.2792,0.0925,0.0057,-0.1979
10.290257256431412,3.3439,0.7498999999999999,-9.1967,0.0941,0.0049,-0.1989
10.300257506437662,3.2638,0.5871000000000001,-9.0411,0.0902,0.00019999999999999998,-0.19949999999999998
10.310257756443912,3.3922,0.5415,-9.0832,0.0867,0.0009,-0.19849999999999998
10.320258006450162,3.4053,0.7243,-9.224,0.0883,0.004699999999999999,-0.1979
10.330258256456412,3.3814999999999995,0.7677999999999999,-9.2709,0.09079999999999999,0.006,-0.1986
10.340258506462662,3.2446999999999995,0.581,-9.119,0.087,0.0015,-0.1996
10.350258756468913,3.3510999999999997,0.5224,-9.0586,0.08549999999999999,-9.999999999999999e-05,-0.1992
10.360259006475163,3.4448,0.6670999999999999,-9.206,0.0845,0.0029,-0.1987
10.370259256481413,3.3924999999999996,0.7837,-9.3255,0.0881,0.0058,-0.19799999999999998
10.380259506487663,3.2563,0.6531,-9.0611,0.0883,0.0014,-0.2002
10.390259756493913,3.3334999999999995,0.5873999999999999,-9.0439,0.0846,-0.0013,-0.1984
10.400260006500163,3.4600999999999997,0.6493,-9.1472,0.0823,0.0009,-0.1986
10.410260256506414,3.3874,0.8181,-9.3371,0.0832,0.0049,-0.1975
10.420260506512664,3.3174,0.6982999999999999,-9.1402,0.08310000000000001,0.0026999999999999997,-0.1998
10.430260756518914,3.291,0.5872999999999999,-9.049999999999999,0.0796,-0.0015999999999999999,-0.1991
10.440261006525164,3.4088,0.5609000000000001,-9.0868,0.0775,-0.0,-0.1989
10.450261256531414,3.4118999999999997,0.7665,-9.2721,0.0799,0.0039,-0.1979
10.460261506537664,3.3779000000000003,0.7993999999999999,-9.244,0.0828,0.0038,-0.1987
10.470261756543914,3.2571999999999997,0.6191,-9.0576,0.0791,-0.001,-0.1999
10.480262006550165,3.3914,0.5654,-9.0753,0.07479999999999999,-0.0012000000000000001,-0.19849999999999998
10.490262256556415,3.4301,0.7351,-9.175899999999999,0.0761,0.0024000000000000002,-0.19799999999999998
10.500262506562665,3.4135,0.8373,-9.3408,0.0787,0.0049,-0.19799999999999998
10.510262756568915,3.2499,0.6343,-9.0969,0.0759,0.0,-0.1998
10.520263006575165,3.3506,0.5701,-9.0611,0.0718,-0.0023,-0.1984
10.530263256581415,3.4682999999999997,0.6842,-9.174999999999999,0.07029999999999999,0.0005,-0.1983
10.540263506587666,3.4147999999999996,0.8543999999999999,-9.362499999999999,0.0718,0.0042,-0.19729999999999998
10.550263756593916,3.3177,0.7021999999999999,-9.1275,0.0716,0.0012000000000000001,-0.19970000000000002
10.560264006600166,3.3011,0.5678,-9.052,0.0663,-0.0028,-0.199
10.570264256606416,3.4545,0.6365,-9.1307,0.063,-0.0005,-0.1976
10.580264506612666,3.4244999999999997,0.8358000000000001,-9.3349,0.0655,0.0034999999999999996,-0.1975
10.590264756618916,3.3546,0.7922999999999999,-9.2212,0.0663,0.0024000000000000002,-0.1986
10.600265006625166,3.2724999999999995,0.5926,-9.056899999999999,0.060099999999999994,-0.0028,-0.1989
10.610265256631417,3.4233,0.5816,-9.0833,0.05689999999999999,-0.002,-0.1979
10.620265506637667,3.4242,0.7506999999999999,-9.209399999999999,0.059199999999999996,0.0014,-0.1975
10.630265756643917,3.4153000000000002,0.8194,-9.2873,0.0626,0.0034,-0.1974
10.640266006650167,3.2518,0.5939,-9.0797,0.058699999999999995,-0.0015999999999999999,-0.1996
10.650266256656417,3.383,0.5579,-9.0894,0.05419999999999999,-0.0024000000000000002,-0.1975
10.660266506662667,3.4722000000000004,0.7216,-9.2134,0.05330000000000001,0.0005,-0.1978
10.670266756668918,3.4162999999999997,0.8545,-9.3713,0.0556,0.0036999999999999997,-0.1972
10.680267006675168,3.2691999999999997,0.6331,-9.0907,0.05330000000000001,-0.00019999999999999998,-0.19949999999999998
10.690267256681418,3.3247999999999998,0.49189999999999995,-9.0849,0.0481,-0.0029,-0.1981
10.700267506687668,3.4635,0.6602,-9.1895,0.0465,-0.00019999999999999998,-0.1972
10.710267756693918,3.42,0.8511,-9.375699999999998,0.048299999999999996,0.0031,-0.1974
10.720268006700168,3.3091000000000004,0.6929,-9.1395,0.0467,0.00039999999999999996,-0.1991
10.730268256706418,3.2915,0.5578,-9.046999999999999,0.0415,-0.0038,-0.1983
10.740268506712669,3.4465999999999997,0.5954,-9.133,0.0371,-0.0017,-0.1979
10.750268756718919,3.4177,0.7451,-9.321,0.0368,0.0021,-0.1972
10.760269006725169,3.3918999999999997,0.7219,-9.2434,0.040799999999999996,0.0010999999999999998,-0.19849999999999998
10.770269256731419,3.2813000000000003,0.5590999999999999,-9.0887,0.0372,-0.004,-0.1991
10.78026950673767,3.4189,0.5182,-9.0649,0.0343,-0.0034999999999999996,-0.1981
10.79026975674392,3.4459999999999997,0.7034999999999999,-9.1961,0.0361,0.00030000000000000003,-0.1974
10.80027000675017,3.4304,0.7903,-9.3084,0.04,0.0025,-0.19729999999999998
10.81027025675642,3.2772,0.577,-9.1043,0.0361,-0.0024000000000000002,-0.19970000000000002
10.82027050676267,3.3685,0.4599,-9.082899999999999,0.0326,-0.0039,-0.1981
10.83027075676892,3.4805,0.6043999999999999,-9.1781,0.0341,-0.0009,-0.1979
10.84027100677517,3.4410000000000003,0.7849,-9.359399999999999,0.0387,0.0026,-0.1972
10.85027125678142,3.2779999999999996,0.5982999999999999,-9.1151,0.039,-0.0012000000000000001,-0.19970000000000002
10.86027150678767,3.3313,0.4574,-9.0532,0.0358,-0.0048000000000000004,-0.1982
10.87027175679392,3.5034999999999994,0.5371,-9.1486,0.0344,-0.0024000000000000002,-0.1982
10.88027200680017,3.4318,0.7483,-9.3749,0.0386,0.0021,-0.19729999999999998
10.890272256806421,3.3396000000000003,0.6566,-9.1991,0.0401,0.0,-0.1993
10.900272506812671,3.3141,0.45909999999999995,-9.077599999999999,0.0365,-0.005,-0.1989
10.910272756818921,3.4755000000000003,0.48979999999999996,-9.1633,0.0339,-0.0033,-0.1979
10.920273006825171,3.4527,0.7197,-9.311,0.037,0.0010999999999999998,-0.1974
10.930273256831422,3.4166000000000003,0.7374999999999999,-9.2947,0.04,0.0009,-0.1982
10.940273506837672,3.2946000000000004,0.4955,-9.0811,0.037,-0.004399999999999999,-0.1989
10.950273756843922,3.4396000000000004,0.4653,-9.1062,0.0362,-0.004,-0.1978
10.960274006850172,3.4826,0.6487999999999999,-9.2423,0.0373,-9.999999999999999e-05,-0.1975
10.970274256856422,3.4505,0.7361,-9.3724,0.040299999999999996,0.0026,-0.19729999999999998
10.980274506862672,3.2904999999999998,0.4928,-9.1364,0.0392,-0.002,-0.1999
10.990274756868923,3.3652,0.3671,-9.1134,0.038,-0.0039,-0.19849999999999998
11.000275006875173,3.4939999999999998,0.4858,-9.2213,0.0394,-0.0012000000000000001,-0.1982
11.010275256881423,3.4455999999999998,0.7085,-9.4012,0.0458,0.0026999999999999997,-0.1974
11.020275506887673,3.3301,0.571,-9.142,0.0492,-0.0005,-0.1998
11.030275756893923,3.3381,0.4332,-9.0863,0.0468,-0.0043,-0.1982
11.040276006900173,3.4917999999999996,0.4979,-9.178899999999999,0.0442,-0.0019,-0.1977
11.050276256906423,3.4499,0.7041999999999999,-9.3514,0.0468,0.0021999999999999997,-0.1969
11.060276506912674,3.3863,0.6484,-9.2454,0.0493,0.001,-0.1982
11.070276756918924,3.3196999999999997,0.44489999999999996,-9.1034,0.046299999999999994,-0.0036,-0.1988
11.080277006925174,3.4515999999999996,0.3907,-9.126199999999999,0.0442,-0.0025,-0.19799999999999998
11.090277256931424,3.4536,0.6051,-9.2488,0.0478,0.0015,-0.19729999999999998
11.100277506937674,3.4471000000000003,0.6985,-9.303899999999999,0.053700000000000005,0.0026999999999999997,-0.1979
11.110277756943924,3.2851,0.4644,-9.1059,0.052199999999999996,-0.0021,-0.19949999999999998
11.120278006950175,3.4102,0.3721,-9.0905,0.050199999999999995,-0.0029,-0.1983
11.130278256956425,3.4999000000000002,0.5788,-9.2361,0.0508,0.00030000000000000003,-0.1979
11.140278506962675,3.4563,0.7458,-9.3695,0.053700000000000005,0.0034,-0.1968
11.150278756968925,3.3118000000000003,0.525,-9.1201,0.053899999999999997,-0.00030000000000000003,-0.1993
11.160279006975175,3.366,0.4169,-9.1016,0.050699999999999995,-0.0028,-0.1974
11.170279256981425,3.5212,0.49240000000000006,-9.2037,0.0482,-0.00039999999999999996,-0.1972
11.180279506987675,3.4434,0.6946,-9.376,0.052199999999999996,0.0034999999999999996,-0.1961
11.190279756993926,3.3787,0.6037,-9.1937,0.0563,0.0017,-0.1983
11.200280007000176,3.3141999999999996,0.39370000000000005,-9.072099999999999,0.0523,-0.0028,-0.1982
11.210280257006426,3.4878,0.3962,-9.1402,0.0497,-0.0007999999999999999,-0.1971
11.220280507012676,3.47,0.6453,-9.328,0.054299999999999994,0.0034999999999999996,-0.19659999999999997
11.230280757018926,3.4108,0.6938,-9.3001,0.0583,0.0036999999999999997,-0.19729999999999998
11.240281007025176,3.3027,0.41989999999999994,-9.117899999999999,0.0545,-0.002,-0.1989
11.250281257031427,3.4446,0.3358,-9.1201,0.0518,-0.0015999999999999999,-0.1974
11.260281507037677,3.4778000000000002,0.5882,-9.2538,0.055099999999999996,0.0024000000000000002,-0.19629999999999997
11.270281757043927,3.4546,0.7084,-9.3348,0.0604,0.004699999999999999,-0.19659999999999997
11.280282007050177,3.2937,0.4254,-9.1295,0.0581,-0.0,-0.1986
11.290282257056427,3.4133999999999998,0.3301,-9.1199,0.055900000000000005,-0.001,-0.19669999999999999
11.300282507062677,3.513,0.5158,-9.2212,0.0567,0.0019,-0.1969
11.310282757068927,3.4552,0.7021999999999999,-9.402199999999999,0.0611,0.0056,-0.19559999999999997
11.320283007075178,3.3268,0.4955,-9.152899999999999,0.0628,0.0023,-0.1987
11.330283257081428,3.3585999999999996,0.33180000000000004,-9.1013,0.059199999999999996,-0.0006000000000000001,-0.19729999999999998
11.340283507087678,3.505,0.42640000000000006,-9.193999999999999,0.058600000000000006,0.0018,-0.19659999999999997
11.350283757093928,3.4516999999999998,0.6764,-9.3585,0.0642,0.0055,-0.1961
11.360284007100178,3.3722000000000003,0.5749,-9.2051,0.0678,0.0041,-0.19799999999999998
11.370284257106428,3.3226999999999998,0.35209999999999997,-9.1061,0.0639,-0.00019999999999999998,-0.1978
11.380284507112679,3.4671,0.3721,-9.152899999999999,0.0621,0.0015,-0.1968
11.390284757118929,3.4608,0.5825,-9.2808,0.0661,0.005,-0.19659999999999997
11.400285007125179,3.4410999999999996,0.6456,-9.3149,0.071,0.0057,-0.1968
11.410285257131429,3.2960000000000003,0.3906,-9.095,0.0677,0.0010999999999999998,-0.1988
11.42028550713768,3.4491,0.3158,-9.1366,0.064,0.0014,-0.1968
11.43028575714393,3.4652000000000003,0.53,-9.209299999999999,0.0665,0.004399999999999999,-0.19669999999999999
11.44028600715018,3.4941,0.7162,-9.3911,0.0708,0.0076,-0.1962
11.45028625715643,3.2748,0.44279999999999997,-9.0977,0.0698,0.003,-0.199
11.46028650716268,3.4093999999999998,0.2935,-9.084999999999999,0.066,0.0014,-0.1971
11.47028675716893,3.5153999999999996,0.4877,-9.2204,0.0671,0.0046,-0.1965
11.48028700717518,3.4708,0.7078,-9.3905,0.0723,0.0083,-0.1961
11.49028725718143,3.3289,0.53,-9.1486,0.073,0.0048000000000000004,-0.1986
11.50028750718768,3.3637,0.2942,-9.068299999999999,0.0686,0.0015,-0.1978
11.51028775719393,3.5035999999999996,0.42050000000000004,-9.1908,0.0681,0.004399999999999999,-0.19669999999999999
11.52028800720018,3.4591999999999996,0.6723,-9.367899999999999,0.0721,0.0083,-0.1962
11.530288257206431,3.3803,0.5801,-9.1992,0.07479999999999999,0.0063,-0.1982
11.540288507212681,3.3397999999999994,0.3641,-9.095,0.0713,0.0021,-0.19799999999999998
11.550288757218931,3.4564999999999997,0.3786,-9.124699999999999,0.06899999999999999,0.0036999999999999997,-0.1971
11.560289007225181,3.4863999999999997,0.5947,-9.2822,0.0709,0.007499999999999999,-0.19629999999999997
11.570289257231432,3.4254,0.6576,-9.2779,0.07629999999999999,0.0082,-0.1969
11.580289507237682,3.3143,0.42579999999999996,-9.1077,0.0727,0.0039,-0.1982
11.590289757243932,3.4154999999999998,0.3276,-9.1226,0.0692,0.0036999999999999997,-0.1968
11.600290007250182,3.5119999999999996,0.5571,-9.2233,0.0708,0.0069,-0.1961
11.610290257256432,3.4730999999999996,0.7136,-9.3627,0.0756,0.0093,-0.1962
11.620290507262682,3.3081,0.46829999999999994,-9.0936,0.0746,0.0058,-0.19849999999999998
11.630290757268932,3.3973000000000004,0.3183,-9.105599999999999,0.0714,0.0041,-0.19699999999999998
11.640291007275183,3.5068,0.45649999999999996,-9.1847,0.0717,0.0065,-0.1965
11.650291257281433,3.4783,0.6969000000000001,-9.413599999999999,0.0765,0.0106,-0.1958
11.660291507287683,3.3366,0.5274,-9.1528,0.0784,0.0078,-0.1984
11.670291757293933,3.3591999999999995,0.3281,-9.0956,0.0751,0.0042,-0.1972
11.680292007300183,3.5103,0.4261,-9.1779,0.0737,0.0065,-0.1961
11.690292257306433,3.454,0.6844,-9.3555,0.0783,0.0105,-0.19569999999999999
11.700292507312684,3.3952999999999998,0.6035999999999999,-9.212299999999999,0.0802,0.0089,-0.1972
11.710292757318934,3.3263,0.3955,-9.0984,0.0774,0.0046,-0.1971
11.720293007325184,3.4549000000000003,0.37820000000000004,-9.100999999999999,0.075,0.0058,-0.1965
11.730293257331434,3.4995,0.5915,-9.2771,0.0771,0.010199999999999999,-0.1953
11.740293507337684,3.4164,0.6733,-9.3045,0.08360000000000001,0.0113,-0.19599999999999998
11.750293757343934,3.3164,0.4661,-9.132,0.08009999999999999,0.0068,-0.1977
11.760294007350184,3.4237999999999995,0.3269,-9.1082,0.07519999999999999,0.0062,-0.1964
11.770294257356435,3.5027999999999997,0.5297999999999999,-9.2406,0.0774,0.0098,-0.19589999999999996
11.780294507362685,3.4507000000000003,0.7073,-9.3598,0.0822,0.012899999999999998,-0.1955
11.790294757368935,3.2986,0.4758,-9.1059,0.082,0.009000000000000001,-0.1977
11.800295007375185,3.3722000000000003,0.34359999999999996,-9.1032,0.0789,0.0067,-0.19599999999999998
11.810295257381435,3.5096000000000003,0.48390000000000005,-9.1958,0.07780000000000001,0.0092,-0.19559999999999997
11.820295507387685,3.4666,0.7364999999999999,-9.431799999999999,0.0819,0.0135,-0.19449999999999998
11.830295757393936,3.3327,0.5412,-9.1632,0.0832,0.010799999999999999,-0.1976
11.840296007400186,3.3547,0.3633,-9.1128,0.0793,0.0073,-0.1958
11.850296257406436,3.4697999999999998,0.4183,-9.168999999999999,0.0772,0.0091,-0.1958
11.860296507412686,3.4527,0.6612,-9.344199999999999,0.0797,0.0131,-0.19469999999999998
11.870296757418936,3.3805,0.6089,-9.1944,0.084,0.012,-0.1965
11.880297007425186,3.3334,0.4305,-9.108099999999999,0.0799,0.0083,-0.1968
11.890297257431437,3.42,0.35019999999999996,-9.1002,0.07619999999999999,0.0092,-0.1962
11.900297507437687,3.466,0.5884999999999999,-9.2739,0.0788,0.013,-0.19499999999999998
11.910297757443937,3.4189999999999996,0.6728,-9.2912,0.0849,0.0142,-0.1961
11.920298007450187,3.298,0.4608,-9.123299999999999,0.0812,0.009399999999999999,-0.1971
11.930298257456437,3.3884999999999996,0.3295,-9.0596,0.0782,0.0085,-0.19629999999999997
11.940298507462687,3.5044999999999997,0.5159,-9.1823,0.0797,0.012,-0.19559999999999997
11.950298757468937,3.4478,0.7276,-9.3494,0.0846,0.0156,-0.19449999999999998
11.960299007475188,3.276,0.5021,-9.0732,0.0849,0.0116,-0.1978
11.970299257481438,3.3552999999999997,0.3591,-9.0871,0.0803,0.0092,-0.1958
11.980299507487688,3.5019,0.5004,-9.203,0.0788,0.0116,-0.1954
11.990299757493938,3.4354999999999998,0.7439,-9.3534,0.08149999999999999,0.0151,-0.1949
12.000300007500188,3.3419,0.6131,-9.1424,0.0822,0.012799999999999999,-0.19669999999999999
12.010300257506438,3.3306,0.39969999999999994,-9.0528,0.078,0.008799999999999999,-0.1968
12.020300507512689,3.4591999999999996,0.4335,-9.1205,0.0744,0.010799999999999999,-0.1954
12.030300757518939,3.4379,0.6769999999999999,-9.2927,0.0777,0.0146,-0.1948
12.040301007525189,3.4077999999999995,0.7021000000000001,-9.2545,0.0803,0.0146,-0.19589999999999996
12.050301257531439,3.2826,0.43949999999999995,-9.0646,0.07569999999999999,0.0095,-0.19699999999999998
12.06030150753769,3.4274999999999998,0.3981,-9.0739,0.071,0.009600000000000001,-0.1955
12.07030175754394,3.4688999999999997,0.6136,-9.2264,0.0725,0.013699999999999999,-0.19469999999999998
12.08030200755019,3.4305000000000003,0.7494,-9.316699999999999,0.0767,0.0161,-0.19499999999999998
12.09030225755644,3.266,0.45189999999999997,-9.087,0.07200000000000001,0.011,-0.1972
12.10030250756269,3.3812,0.3575,-9.0831,0.0682,0.0093,-0.19519999999999998
12.11030275756894,3.4777,0.5636,-9.1579,0.0691,0.0123,-0.1951
12.12030300757519,3.4569999999999994,0.7637999999999999,-9.354999999999999,0.0727,0.0161,-0.19419999999999998
12.13030325758144,3.2752000000000003,0.49389999999999995,-9.0709,0.0719,0.012199999999999999,-0.19729999999999998
12.14030350758769,3.3534,0.3653,-9.065,0.0688,0.009600000000000001,-0.1953
12.15030375759394,3.4882000000000004,0.49,-9.1816,0.0675,0.0119,-0.1951
12.16030400760019,3.4349999999999996,0.7274,-9.3722,0.0717,0.015799999999999998,-0.19419999999999998
12.17030425760644,3.3257000000000003,0.5801999999999999,-9.141399999999999,0.0742,0.0134,-0.1968
12.180304507612691,3.3276,0.404,-9.0572,0.0702,0.0093,-0.19559999999999997
12.190304757618941,3.4423000000000004,0.43899999999999995,-9.1172,0.0684,0.0111,-0.1953
12.200305007625191,3.4354999999999998,0.6478,-9.2736,0.0719,0.014799999999999999,-0.1944
12.210305257631441,3.4007,0.6733,-9.248000000000001,0.0766,0.014899999999999998,-0.19519999999999998
12.220305507637692,3.2694,0.4261,-9.060799999999999,0.0733,0.009899999999999999,-0.1965
12.230305757643942,3.4289,0.3796,-9.1127,0.0711,0.010199999999999999,-0.19469999999999998
12.240306007650192,3.4528000000000003,0.6244999999999999,-9.219,0.0747,0.0135,-0.1943
12.250306257656442,3.4341999999999997,0.734,-9.284699999999999,0.0797,0.0154,-0.1944
12.260306507662692,3.2662999999999998,0.4775,-9.0571,0.0777,0.0109,-0.19589999999999996
12.270306757668942,3.3899999999999997,0.3556,-9.0624,0.07629999999999999,0.009399999999999999,-0.19499999999999998
12.280307007675193,3.4623,0.5415,-9.171899999999999,0.0777,0.0125,-0.194
12.290307257681443,3.4542999999999995,0.7184,-9.324499999999999,0.0842,0.0155,-0.19419999999999998
12.300307507687693,3.2877,0.5286,-9.101199999999999,0.0853,0.0121,-0.19589999999999996
12.310307757693943,3.3416,0.3549,-9.013300000000001,0.08499999999999999,0.0092,-0.19469999999999998
12.320308007700193,3.4882999999999997,0.49269999999999997,-9.1595,0.0853,0.0115,-0.19419999999999998
12.330308257706443,3.4177,0.6854,-9.2875,0.0919,0.014999999999999998,-0.1933
12.340308507712693,3.3369000000000004,0.5895,-9.146600000000001,0.0956,0.012799999999999999,-0.1955
12.350308757718944,3.3122,0.4115,-9.0351,0.0942,0.0089,-0.19449999999999998
12.360309007725194,3.4576999999999996,0.4484,-9.1122,0.0946,0.010799999999999999,-0.19419999999999998
12.370309257731444,3.4298,0.6888,-9.295,0.0986,0.0152,-0.193
12.380309507737694,3.3676999999999997,0.6745,-9.22,0.10120000000000001,0.014499999999999999,-0.19449999999999998
12.390309757743944,3.2870999999999997,0.4527,-9.1007,0.09759999999999999,0.009899999999999999,-0.1946
12.400310007750194,3.3992,0.41190000000000004,-9.0869,0.09779999999999998,0.009899999999999999,-0.1944
12.410310257756445,3.4482999999999997,0.6194,-9.2141,0.0996,0.0134,-0.1934
12.420310507762695,3.4112999999999998,0.683,-9.2425,0.1062,0.0152,-0.19369999999999998
12.430310757768945,3.2791,0.5250999999999999,-9.1118,0.1057,0.0113,-0.1949
12.440311007775195,3.367,0.46030000000000004,-9.0498,0.1043,0.009600000000000001,-0.1936
12.450311257781445,3.4915000000000003,0.582,-9.2224,0.10289999999999999,0.0119,-0.19369999999999998
12.460311507787695,3.4088,0.746,-9.3396,0.10779999999999999,0.0156,-0.1924
12.470311757793946,3.298,0.6099,-9.1165,0.10839999999999998,0.012199999999999999,-0.1953
12.480312007800196,3.3189,0.47809999999999997,-9.0376,0.10419999999999999,0.0091,-0.1934
12.490312257806446,3.4743000000000004,0.5261,-9.1449,0.10349999999999998,0.0115,-0.1933
12.500312507812696,3.4389999999999996,0.7484,-9.347,0.10690000000000001,0.016,-0.1924
12.510312757818946,3.3353,0.6869,-9.167,0.10859999999999999,0.0143,-0.1941
12.520313007825196,3.2849000000000004,0.5186,-9.0383,0.1057,0.009600000000000001,-0.1941
12.530313257831446,3.4229000000000003,0.4995,-9.0893,0.1028,0.010799999999999999,-0.1933
12.540313507837697,3.4242,0.7006,-9.2578,0.1051,0.014999999999999998,-0.1923
12.550313757843947,3.385,0.7772,-9.2548,0.1088,0.0154,-0.1933
12.560314007850197,3.2632,0.5559,-9.0891,0.1033,0.0107,-0.1943
12.570314257856447,3.3846,0.4971,-9.0581,0.1016,0.010199999999999999,-0.1929
12.580314507862697,3.4760999999999997,0.7262,-9.2302,0.10189999999999999,0.0138,-0.1921
12.590314757868947,3.4217999999999997,0.8649,-9.305399999999999,0.10389999999999999,0.0166,-0.1917
12.600315007875198,3.3017999999999996,0.6799000000000001,-9.1444,0.0996,0.012799999999999999,-0.19369999999999998
12.610315257881448,3.3397999999999994,0.5538000000000001,-9.0832,0.0941,0.0104,-0.1922
12.620315507887698,3.4956,0.7126,-9.2033,0.0906,0.0131,-0.1912
12.630315757893948,3.4416,0.8739999999999999,-9.3421,0.0916,0.0165,-0.191
12.640316007900198,3.3312,0.7518,-9.1322,0.0924,0.0143,-0.1921
12.650316257906448,3.3319,0.5991,-9.0511,0.0884,0.010799999999999999,-0.1915
12.660316507912698,3.4784,0.6789,-9.162099999999999,0.0853,0.0127,-0.1898
12.670316757918949,3.4438999999999997,0.8869999999999999,-9.314400000000001,0.0883,0.015899999999999997,-0.1894
12.680317007925199,3.3796,0.8704,-9.191699999999999,0.0892,0.0144,-0.1904
12.690317257931449,3.33,0.6864999999999999,-9.0609,0.0843,0.0101,-0.19
12.700317507937699,3.4536999999999995,0.6546,-9.0848,0.08099999999999999,0.0111,-0.1884
12.71031775794395,3.4583000000000004,0.8727999999999999,-9.2191,0.0822,0.014999999999999998,-0.1872
12.7203180079502,3.4548,0.9471,-9.2815,0.08270000000000001,0.0164,-0.1874
12.73031825795645,3.2996,0.7128,-9.084,0.0777,0.0118,-0.1887
12.7403185079627,3.4107,0.6983999999999999,-9.0615,0.0718,0.0114,-0.1856
12.75031875796895,3.5067,0.8992999999999999,-9.1844,0.06989999999999999,0.014100000000000001,-0.18519999999999998
12.7603190079752,3.4469,1.0027,-9.3065,0.06939999999999999,0.0166,-0.1843
12.77031925798145,3.3279,0.7743,-9.082899999999999,0.0658,0.0127,-0.1861
12.7803195079877,3.3737000000000004,0.7085,-9.0526,0.060899999999999996,0.010799999999999999,-0.18359999999999999
12.79031975799395,3.4736000000000002,0.7981,-9.1308,0.0583,0.012799999999999999,-0.183
12.8003200080002,3.4733,0.9639999999999999,-9.3339,0.0582,0.015899999999999997,-0.182
12.81032025800645,3.3238999999999996,0.8083999999999999,-9.1223,0.0563,0.0131,-0.18359999999999999
12.820320508012701,3.3411999999999997,0.6860999999999999,-9.0213,0.051699999999999996,0.0092,-0.18209999999999998
12.830320758018951,3.4575,0.6795,-9.0632,0.0482,0.0098,-0.1815
12.840321008025201,3.4633,0.8717,-9.267499999999998,0.0498,0.0139,-0.1799
12.850321258031451,3.3836,0.8309,-9.1978,0.0518,0.013999999999999999,-0.18109999999999998
12.860321508037702,3.3253,0.6986,-9.0783,0.05,0.0103,-0.1799
12.870321758043952,3.4253,0.6554,-9.0939,0.046,0.0098,-0.1792
12.880322008050202,3.4604000000000004,0.8658,-9.2347,0.0469,0.0134,-0.1772
12.890322258056452,3.4305000000000003,0.9088,-9.2491,0.048999999999999995,0.0143,-0.178
12.900322508062702,3.3122,0.7239,-9.0911,0.044700000000000004,0.01,-0.1778
12.910322758068952,3.4047,0.6444,-9.0532,0.0415,0.0086,-0.17700000000000002
12.920323008075203,3.4645,0.8142999999999999,-9.1609,0.0413,0.0116,-0.1756
12.930323258081453,3.4696,0.9138999999999999,-9.2774,0.043699999999999996,0.0142,-0.17529999999999998
12.940323508087703,3.3359,0.7636999999999999,-9.1596,0.041,0.0113,-0.17579999999999998
12.950323758093953,3.3891999999999998,0.6791,-9.0863,0.038900000000000004,0.0087,-0.1744
12.960324008100203,3.4597999999999995,0.8012999999999999,-9.169599999999999,0.0375,0.009600000000000001,-0.1735
12.970324258106453,3.4805,0.9017999999999999,-9.305299999999999,0.039599999999999996,0.013,-0.1721
12.980324508112703,3.3673,0.7939999999999999,-9.199,0.0394,0.0111,-0.1732
12.990324758118954,3.3737000000000004,0.7231,-9.091000000000001,0.0371,0.0083,-0.1712
13.000325008125204,3.4665,0.7326,-9.126900000000001,0.0355,0.0089,-0.1708
13.010325258131454,3.4726,0.901,-9.3119,0.0372,0.012899999999999998,-0.1684
13.020325508137704,3.3949,0.8323999999999999,-9.2179,0.0378,0.012199999999999999,-0.1699
13.030325758143954,3.3407,0.737,-9.1083,0.0349,0.0083,-0.1683
13.040326008150204,3.4471000000000003,0.7139,-9.0801,0.0344,0.008,-0.1671
13.050326258156455,3.4625999999999997,0.8465,-9.2347,0.0361,0.0111,-0.166
13.060326508162705,3.428,0.8472999999999999,-9.235999999999999,0.0386,0.0125,-0.16570000000000001
13.070326758168955,3.3487999999999998,0.7204,-9.1572,0.0382,0.009000000000000001,-0.1655
13.080327008175205,3.4141999999999997,0.6949,-9.0466,0.0387,0.0072,-0.1638
13.090327258181455,3.4875000000000003,0.8257,-9.1977,0.0394,0.0093,-0.1629
13.100327508187705,3.4322,0.9017999999999999,-9.2349,0.0415,0.0117,-0.1618
13.110327758193955,3.3812,0.7912,-9.1758,0.039,0.009399999999999999,-0.1619
13.120328008200206,3.3960999999999997,0.735,-9.0937,0.0354,0.007499999999999999,-0.1603
13.130328258206456,3.4566,0.7472,-9.126,0.0332,0.0083,-0.15969999999999998
13.140328508212706,3.4751,0.8527,-9.2816,0.0349,0.0114,-0.1578
13.150328758218956,3.3766,0.7747999999999999,-9.2005,0.0364,0.010199999999999999,-0.1587
13.160329008225206,3.3848999999999996,0.7765,-9.1123,0.0344,0.0078,-0.1563
13.170329258231456,3.4235,0.756,-9.0875,0.0325,0.0073999999999999995,-0.1563
13.180329508237707,3.4739,0.8434999999999999,-9.3074,0.0305,0.0106,-0.1544
13.190329758243957,3.3754,0.777,-9.2295,0.0302,0.010199999999999999,-0.1548
13.200330008250207,3.4053,0.7671,-9.1601,0.0281,0.0073999999999999995,-0.1537
13.210330258256457,3.4082,0.7273,-9.0998,0.0252,0.0069,-0.1527
13.220330508262707,3.4627999999999997,0.8188000000000001,-9.2351,0.023299999999999998,0.009600000000000001,-0.15089999999999998
13.230330758268957,3.4297,0.9015000000000001,-9.2717,0.0215,0.0109,-0.1503
13.240331008275207,3.3708,0.8251,-9.2259,0.0151,0.0081,-0.15
13.250331258281458,3.4056999999999995,0.757,-9.1321,0.0084,0.0066,-0.14859999999999998
13.260331508287708,3.4567,0.8004,-9.2104,0.004,0.0081,-0.1474
13.270331758293958,3.4463,0.8652,-9.2678,0.0007999999999999999,0.0101,-0.1465
13.280332008300208,3.3654,0.804,-9.2185,-0.0052,0.0086,-0.1464
13.290332258306458,3.3896,0.7451,-9.1252,-0.012,0.006999999999999999,-0.1453
13.300332508312708,3.4303,0.7498,-9.1687,-0.018799999999999997,0.0072,-0.1443
13.310332758318959,3.4703999999999997,0.8392,-9.2972,-0.022699999999999998,0.0097,-0.1426
13.320333008325209,3.347,0.7748999999999999,-9.1943,-0.025,0.0084,-0.1429
13.330333258331459,3.4027000000000003,0.7387,-9.1374,-0.028200000000000003,0.0063,-0.1409
13.340333508337709,3.4280999999999997,0.6852999999999999,-9.1489,-0.031599999999999996,0.0063999999999999994,-0.1404
13.35033375834396,3.453,0.7676999999999999,-9.2779,-0.0333,0.009399999999999999,-0.1384
13.36033400835021,3.3813999999999997,0.7704,-9.2517,-0.0346,0.009399999999999999,-0.1384
13.37033425835646,3.3770000000000002,0.7201,-9.1812,-0.0388,0.0066,-0.1372
13.38033450836271,3.3975,0.6539999999999999,-9.1083,-0.0429,0.005399999999999999,-0.1364
13.39033475836896,3.4433,0.7271,-9.207600000000001,-0.045399999999999996,0.0072,-0.13470000000000001
13.40033500837521,3.3984,0.746,-9.2141,-0.0468,0.0082,-0.1342
13.41033525838146,3.3917,0.7019,-9.2236,-0.0492,0.0067,-0.1332
13.42033550838771,3.3827000000000003,0.6149,-9.114600000000001,-0.0514,0.005399999999999999,-0.13240000000000002
13.43033575839396,3.4301,0.6587,-9.2044,-0.053799999999999994,0.0060999999999999995,-0.1306
13.44033600840021,3.4513000000000003,0.7309,-9.2759,-0.0536,0.0077,-0.1293
13.45033625840646,3.3535000000000004,0.6820999999999999,-9.2176,-0.0554,0.006,-0.12919999999999998
13.460336508412711,3.3741,0.5615,-9.091899999999999,-0.0579,0.004,-0.1278
13.470336758418961,3.4268,0.5218999999999999,-9.1321,-0.0585,0.0039,-0.12689999999999999
13.480337008425211,3.4422,0.6031,-9.239600000000001,-0.055999999999999994,0.0065,-0.12539999999999998
13.490337258431461,3.3512,0.5764,-9.2059,-0.0546,0.0063,-0.1255
13.500337508437712,3.3772,0.5217,-9.1394,-0.053899999999999997,0.0039,-0.1237
13.510337758443962,3.3962,0.47280000000000005,-9.109499999999999,-0.0531,0.0026,-0.12329999999999999
13.520338008450212,3.4593,0.5418,-9.270299999999999,-0.052,0.0049,-0.1214
13.530338258456462,3.3438000000000003,0.5292,-9.1964,-0.0482,0.004699999999999999,-0.1213
13.540338508462712,3.3894,0.5117,-9.1318,-0.0469,0.0023,-0.11950000000000001
13.550338758468962,3.4111000000000002,0.4302,-9.0809,-0.047,0.0015999999999999999,-0.1193
13.560339008475212,3.4345,0.484,-9.2236,-0.0467,0.0039,-0.11739999999999999
13.570339258481463,3.3846,0.5261,-9.2273,-0.043699999999999996,0.0052,-0.1168
13.580339508487713,3.3876999999999997,0.5256000000000001,-9.232099999999999,-0.0438,0.003,-0.1156
13.590339758493963,3.3806000000000003,0.4464,-9.1398,-0.0433,0.0015999999999999999,-0.1151
13.600340008500213,3.4084999999999996,0.4614,-9.2019,-0.043,0.0019,-0.1136
13.610340258506463,3.4295999999999998,0.4986,-9.2475,-0.0404,0.0036,-0.11230000000000001
13.620340508512713,3.3640000000000003,0.4779,-9.2279,-0.0388,0.0026999999999999997,-0.1119
13.630340758518964,3.3878,0.4504,-9.1893,-0.0397,0.0019,-0.1105
13.640341008525214,3.3826,0.44179999999999997,-9.1908,-0.042499999999999996,0.0014,-0.1098
13.650341258531464,3.4341000000000004,0.49959999999999993,-9.281,-0.0444,0.0023,-0.108
13.660341508537714,3.3536999999999995,0.4729,-9.2242,-0.045899999999999996,0.0017,-0.10779999999999999
13.670341758543964,3.3765,0.4439,-9.2051,-0.0485,0.0006000000000000001,-0.10629999999999999
13.680342008550214,3.3869000000000002,0.3657,-9.1741,-0.051000000000000004,0.0005,-0.1057
13.690342258556464,3.4216,0.38739999999999997,-9.281699999999999,-0.0513,0.0021,-0.1038
13.700342508562715,3.3869000000000002,0.41079999999999994,-9.275500000000001,-0.0492,0.0029,-0.1031
13.710342758568965,3.3737000000000004,0.42500000000000004,-9.2829,-0.0486,0.0021,-0.1018
13.720343008575215,3.3654999999999995,0.3578,-9.1753,-0.0498,0.0013,-0.10139999999999999
13.730343258581465,3.4042999999999997,0.3655,-9.2882,-0.0535,0.0019,-0.0999
13.740343508587715,3.4007999999999994,0.3853,-9.2777,-0.054,0.0029,-0.0988
13.750343758593965,3.3605,0.3837,-9.2575,-0.0566,0.0018,-0.0988
13.760344008600216,3.3499,0.2929,-9.1643,-0.0585,0.0007999999999999999,-0.09749999999999999
13.770344258606466,3.3741,0.24889999999999998,-9.2012,-0.060099999999999994,0.0006000000000000001,-0.0965
13.780344508612716,3.4139999999999997,0.3186,-9.24,-0.0563,0.002,-0.0947
13.790344758618966,3.3548,0.2918,-9.2227,-0.052199999999999996,0.0007,-0.0944
13.800345008625216,3.3277,0.2405,-9.124,-0.047,-0.0007999999999999999,-0.09319999999999999
13.810345258631466,3.3876000000000004,0.1797,-9.159699999999999,-0.046599999999999996,-0.0012000000000000001,-0.0929
13.820345508637716,3.4145000000000003,0.256,-9.2799,-0.0436,0.0017,-0.0903
13.830345758643967,3.3566,0.2677,-9.2682,-0.0407,0.0014,-0.0911
13.840346008650217,3.3546,0.2483,-9.1943,-0.0402,0.0,-0.0893
13.850346258656467,3.3823,0.1173,-9.153500000000001,-0.038900000000000004,-0.0007,-0.0891
13.860346508662717,3.4174999999999995,0.2079,-9.281799999999999,-0.0349,0.0019,-0.08689999999999999
13.870346758668967,3.3276,0.1908,-9.2119,-0.0279,0.0021999999999999997,-0.087
13.880347008675217,3.3513,0.17830000000000001,-9.2107,-0.0215,0.00030000000000000003,-0.0853
13.890347258681468,3.3824,0.0992,-9.178600000000001,-0.018000000000000002,0.00019999999999999998,-0.0852
13.900347508687718,3.3876999999999997,0.1794,-9.2978,-0.0155,0.0021,-0.0829
13.910347758693968,3.3606999999999996,0.193,-9.2783,-0.0106,0.0017,-0.083
13.920348008700218,3.3458,0.1911,-9.26,-0.0076,-0.00039999999999999996,-0.0818
13.930348258706468,3.3537999999999997,0.082,-9.1851,-0.005,-0.0013,-0.0813
13.940348508712718,3.3805,0.1258,-9.2309,0.0007999999999999999,-0.00030000000000000003,-0.0796
13.950348758718969,3.3899,0.1653,-9.2797,0.0062,0.0006000000000000001,-0.079
13.960349008725219,3.3362000000000003,0.14450000000000002,-9.2295,0.010799999999999999,-0.00039999999999999996,-0.078
13.970349258731469,3.3636,0.0867,-9.1798,0.014999999999999998,-0.0009,-0.0775
