Time [s],ACC X [m/s^2],ACC Y [m/s^2],ACC Z [m/s^2],GYRO X [rad/s],GYRO Y [rad/s],GYRO Z [rad/s]
0.0,0.101,-0.0373,-9.7719,0.01,-0.0015999999999999999,0.0060999999999999995
0.010000250006250157,0.1124,-0.0241,-9.8107,0.0098,-0.0007,0.0067
0.020000500012500314,0.10039999999999999,0.0132,-9.806099999999999,0.0106,-0.0007,0.0067
0.030000750018750473,0.0964,-0.0025,-9.8136,0.0112,-0.001,0.0066
0.04000100002500063,0.0987,-0.0092,-9.798,0.010799999999999999,-0.0014,0.0066
0.050001250031250784,0.1103,-0.0276,-9.8028,0.01,-0.0012000000000000001,0.0063999999999999994
0.060001500037500946,0.0999,-0.0171,-9.8068,0.0098,-0.0007,0.0067
0.0700017500437511,0.1051,0.0115,-9.8103,0.0107,-0.0006000000000000001,0.0067
0.08000200005000126,0.0945,0.017599999999999998,-9.8103,0.0109,-0.0006000000000000001,0.0067
0.09000225005625141,0.08739999999999999,-0.003,-9.7928,0.0107,-0.0012000000000000001,0.0068
0.10000250006250157,0.1164,-0.009899999999999999,-9.8026,0.009899999999999999,-0.0014,0.0066
0.11000275006875172,0.0833,-0.009000000000000001,-9.79,0.008799999999999999,-0.0012000000000000001,0.006999999999999999
0.12000300007500189,0.10959999999999999,0.029300000000000003,-9.8179,0.0095,-0.001,0.0072
0.13000325008125205,0.08689999999999999,0.0365,-9.7866,0.0091,-0.0012000000000000001,0.006999999999999999
0.1400035000875022,0.1036,-0.0092,-9.7845,0.0083,-0.0015999999999999999,0.0071
0.15000375009375236,0.11850000000000001,-0.003,-9.7763,0.0077,-0.0018,0.0069
0.1600040001000025,0.0955,-0.0083,-9.7965,0.0071,-0.0009,0.006999999999999999
0.17000425010625267,0.10579999999999999,0.0095,-9.8158,0.0082,-0.0007,0.0073999999999999995
0.18000450011250282,0.0826,0.024,-9.8157,0.0087,-0.0007999999999999999,0.0072
0.19000475011875298,0.10120000000000001,0.0043,-9.7964,0.0082,-0.0013,0.0072
0.20000500012500314,0.11399999999999999,0.0021,-9.7785,0.0072,-0.0015999999999999999,0.006999999999999999
0.2100052501312533,0.08689999999999999,-0.0167,-9.779300000000001,0.0063999999999999994,-0.0010999999999999998,0.0073
0.22000550013750345,0.1116,0.0161,-9.7983,0.008,-0.0007,0.0077
0.2300057501437536,0.0903,0.0357,-9.8123,0.0083,-0.0007999999999999999,0.007499999999999999
0.24000600015000378,0.09219999999999999,-0.0036,-9.7966,0.0077,-0.0017,0.007499999999999999
0.25000625015625394,0.10909999999999999,-0.014499999999999999,-9.7783,0.0076,-0.0021,0.0071
0.2600065001625041,0.0957,-0.0067,-9.7923,0.0069,-0.0015999999999999999,0.0073999999999999995
0.27000675016875425,0.1041,0.0226,-9.8082,0.0077,-0.0012000000000000001,0.0078
0.2800070001750044,0.0962,0.0444,-9.807,0.0078,-0.0013,0.0077
0.29000725018125456,0.0998,0.0277,-9.807599999999999,0.0068,-0.0015999999999999999,0.0078
0.3000075001875047,0.101,0.0349,-9.784099999999999,0.005,-0.0017,0.007499999999999999
0.31000775019375487,0.11009999999999999,0.022,-9.8071,0.0031,-0.0013,0.0078
0.320008000200005,0.09799999999999999,0.030899999999999997,-9.8111,0.0039,-0.0006000000000000001,0.0082
0.3300082502062552,0.0912,0.0472,-9.815,0.0031,-0.0007,0.008
0.34000850021250534,0.1075,0.017599999999999998,-9.822,0.002,-0.0010999999999999998,0.008
0.3500087502187555,0.1028,-0.0057,-9.8074,0.0015999999999999999,-0.0014,0.007899999999999999
0.36000900022500565,0.0949,0.00019999999999999998,-9.8085,0.0018,-0.0012000000000000001,0.0081
0.3700092502312558,0.0994,0.0249,-9.8026,0.0024000000000000002,-0.0010999999999999998,0.0081
0.38000950023750596,0.0808,0.0401,-9.807,0.0026999999999999997,-0.0010999999999999998,0.0083
0.3900097502437561,0.10089999999999999,0.0164,-9.7907,0.0014,-0.0015999999999999999,0.0082
0.40001000025000627,0.1211,0.012,-9.817499999999999,0.0007999999999999999,-0.0018,0.0082
0.4100102502562564,0.0915,0.0062,-9.794899999999998,-0.00030000000000000003,-0.0014,0.0083
0.4200105002625066,0.12119999999999999,0.0111,-9.8301,0.001,-0.0007999999999999999,0.0086
0.43001075026875674,0.07150000000000001,0.031599999999999996,-9.8035,0.0018,-0.0007,0.0087
0.4400110002750069,0.10759999999999999,0.0289,-9.8006,0.0014,-0.0009,0.0087
0.45001125028125705,0.11969999999999999,-0.0063,-9.803,0.0007,-0.001,0.0083
0.4600115002875072,0.0973,0.0146,-9.8109,-0.0,-0.0005,0.008799999999999999
0.47001175029375736,0.09169999999999999,0.0406,-9.7932,-0.0005,-0.00030000000000000003,0.008799999999999999
0.48001200030000757,0.0839,0.0504,-9.793899999999999,-0.00039999999999999996,-0.0009,0.008799999999999999
0.4900122503062577,0.0987,0.0185,-9.7902,-0.0021,-0.0012000000000000001,0.0087
0.5000125003125079,0.1193,-0.0066,-9.812899999999999,-0.0023,-0.0010999999999999998,0.008799999999999999
0.510012750318758,0.0958,0.0118,-9.7986,-0.0029,-0.001,0.008799999999999999
0.5200130003250082,0.10889999999999998,0.0131,-9.8055,-0.0018,-0.0007999999999999999,0.009000000000000001
0.5300132503312583,0.082,0.0288,-9.8111,-0.0007,-0.0006000000000000001,0.0093
0.5400135003375085,0.10959999999999999,0.013999999999999999,-9.8127,-0.0017,-0.0007999999999999999,0.0092
0.5500137503437587,0.1117,0.0124,-9.8051,-0.0018,-0.0012000000000000001,0.0091
0.5600140003500088,0.11999999999999998,0.016,-9.8054,-0.0026999999999999997,-0.0007999999999999999,0.0091
0.570014250356259,0.0935,0.0084,-9.7889,-0.0017,-0.00030000000000000003,0.009600000000000001
0.5800145003625091,0.0861,0.0252,-9.7918,-0.0006000000000000001,-9.999999999999999e-05,0.009600000000000001
0.5900147503687593,0.10339999999999999,0.0249,-9.7988,-0.0017,-0.00039999999999999996,0.0097
0.6000150003750094,0.1144,-0.0131,-9.8188,-0.0015,-0.0007999999999999999,0.0091
0.6100152503812596,0.0942,0.0013,-9.8042,-0.0021,-0.0009,0.009600000000000001
0.6200155003875097,0.117,0.0265,-9.789100000000001,-0.0015999999999999999,-0.0006000000000000001,0.0095
0.6300157503937599,0.0819,0.029300000000000003,-9.79,-0.0012000000000000001,-0.00039999999999999996,0.0098
0.64001600040001,0.1038,0.0224,-9.8012,-0.0017,-0.00039999999999999996,0.009899999999999999
0.6500162504062602,0.1119,0.017,-9.8059,-0.0025,-0.0006000000000000001,0.009600000000000001
0.6600165004125104,0.0941,-0.0006000000000000001,-9.7989,-0.0043,-0.0005,0.0097
0.6700167504187605,0.1112,0.0109,-9.7931,-0.0033,-0.00030000000000000003,0.01
0.6800170004250107,0.0925,0.0395,-9.8079,-0.0025,0.00019999999999999998,0.0103
0.6900172504312608,0.1132,0.029599999999999998,-9.801,-0.0038,-0.0,0.0104
0.700017500437511,0.1149,0.0093,-9.8075,-0.0048000000000000004,-0.0005,0.01
0.7100177504437611,0.0846,-0.0098,-9.7922,-0.005399999999999999,-0.00030000000000000003,0.01
0.7200180004500113,0.1168,0.023299999999999998,-9.8137,-0.0050999999999999995,-0.0,0.0106
0.7300182504562615,0.07579999999999999,0.0238,-9.8055,-0.004,0.00030000000000000003,0.0103
0.7400185004625116,0.1033,0.0249,-9.796199999999999,-0.0048000000000000004,-0.00030000000000000003,0.0105
0.7500187504687618,0.11379999999999998,-0.0043,-9.7835,-0.006,-0.0009,0.010199999999999999
0.7600190004750119,0.10690000000000001,-0.0157,-9.7923,-0.0065,-0.00039999999999999996,0.0103
0.7700192504812621,0.10629999999999999,0.0225,-9.8117,-0.0059,9.999999999999999e-05,0.010799999999999999
0.7800195004875122,0.0761,0.0262,-9.7952,-0.0055,0.00019999999999999998,0.010799999999999999
0.7900197504937624,0.1134,0.0072,-9.7988,-0.006,-9.999999999999999e-05,0.0109
0.8000200005000125,0.1092,-0.0174,-9.8063,-0.0059,-0.00019999999999999998,0.0105
0.8100202505062627,0.0981,-0.009600000000000001,-9.7852,-0.0067,-0.0,0.0109
0.8200205005125129,0.11789999999999999,0.004399999999999999,-9.796899999999999,-0.006,0.00030000000000000003,0.0109
0.830020750518763,0.0844,0.024499999999999997,-9.7901,-0.004699999999999999,0.0006000000000000001,0.0112
0.8400210005250132,0.1154,0.0138,-9.804400000000001,-0.0057,0.0007,0.0112
0.8500212505312633,0.1047,-0.0284,-9.8107,-0.0059,0.00019999999999999998,0.011
0.8600215005375135,0.10369999999999999,-0.0183,-9.8141,-0.0063999999999999994,0.00030000000000000003,0.011
0.8700217505437636,0.105,0.0048000000000000004,-9.811,-0.0058,0.0005,0.0112
0.8800220005500138,0.0867,0.0126,-9.8063,-0.0045000000000000005,0.0006000000000000001,0.0113
0.8900222505562639,0.0954,0.0087,-9.789399999999999,-0.005,0.00030000000000000003,0.0113
0.9000225005625141,0.1108,-0.0257,-9.799900000000001,-0.006,9.999999999999999e-05,0.0112
0.9100227505687642,0.1028,-0.017499999999999998,-9.7852,-0.0066,9.999999999999999e-05,0.0114
0.9200230005750144,0.11019999999999999,0.0126,-9.7955,-0.0058,0.0006000000000000001,0.0117
0.9300232505812646,0.0883,0.020900000000000002,-9.7997,-0.0055,0.0007999999999999999,0.0118
0.9400235005875147,0.105,0.0059,-9.802299999999999,-0.0063999999999999994,0.0005,0.0119
0.9500237505937649,0.1104,-0.0105,-9.794,-0.0071,0.00030000000000000003,0.0117
0.9600240006000151,0.1162,-0.0219,-9.7917,-0.0081,0.0006000000000000001,0.0116
0.9700242506062653,0.11,-0.0046,-9.803099999999999,-0.0077,0.0012000000000000001,0.012199999999999999
0.9800245006125154,0.071,-0.0056,-9.7676,-0.006,0.0013,0.0119
0.9900247506187656,0.1166,-0.0036999999999999997,-9.7816,-0.0060999999999999995,0.0009,0.0121
1.0000250006250158,0.11529999999999999,-0.05159999999999999,-9.807699999999999,-0.0065,0.0012000000000000001,0.0118
1.010025250631266,0.0862,-0.0377,-9.7868,-0.0056,0.0009,0.0123
1.020025500637516,0.1178,0.0341,-9.8015,-0.0052,0.0009,0.0126
1.0300257506437662,0.08159999999999999,0.0092,-9.802299999999999,-0.0043,0.0009,0.0123
1.0400260006500164,0.1092,-0.004699999999999999,-9.7861,-0.0045000000000000005,0.0007999999999999999,0.0126
1.0500262506562665,0.10419999999999999,-0.0346,-9.789,-0.0059,0.0006000000000000001,0.0124
1.0600265006625167,0.10709999999999999,-0.05739999999999999,-9.7989,-0.006,0.0007999999999999999,0.0125
1.0700267506687668,0.109,-0.0081,-9.8006,-0.0048000000000000004,0.0013,0.012799999999999999
1.080027000675017,0.07619999999999999,0.0114,-9.7932,-0.0036,0.0014,0.013
1.0900272506812672,0.1021,-0.0026999999999999997,-9.771799999999999,-0.0041,0.0007,0.012899999999999998
1.1000275006875173,0.1036,-0.0045000000000000005,-9.7684,-0.0052,0.0005,0.0127
1.1100277506937675,0.11230000000000001,-0.031599999999999996,-9.7889,-0.0069,0.001,0.012899999999999998
1.1200280007000176,0.1258,-0.0036,-9.789,-0.0063999999999999994,0.0014,0.0134
1.1300282507062678,0.0747,-0.0036999999999999997,-9.8011,-0.0057,0.0018,0.0132
1.140028500712518,0.0993,-0.020399999999999998,-9.7869,-0.0063999999999999994,0.0012000000000000001,0.013300000000000001
1.150028750718768,0.1208,-0.053799999999999994,-9.803199999999999,-0.0071,0.0012000000000000001,0.013
1.1600290007250182,0.0925,-0.0326,-9.7919,-0.0068,0.0010999999999999998,0.0132
1.1700292507312684,0.10909999999999999,-0.025799999999999997,-9.7795,-0.0059,0.0015999999999999999,0.0134
1.1800295007375186,0.0944,-0.0155,-9.7858,-0.0049,0.0015999999999999999,0.0135
1.1900297507437687,0.0817,-0.0417,-9.7795,-0.005399999999999999,0.0015,0.0135
1.2000300007500189,0.11919999999999999,-0.028999999999999998,-9.7982,-0.0057,0.0010999999999999998,0.0136
1.210030250756269,0.10660000000000001,-0.031,-9.7998,-0.0060999999999999995,0.001,0.0132
1.2200305007625192,0.1018,-0.0474,-9.779300000000001,-0.0057,0.0010999999999999998,0.0136
1.2300307507687693,0.083,-0.041,-9.7846,-0.0038,0.0015,0.0138
1.2400310007750195,0.10039999999999999,-0.0297,-9.7801,-0.004,0.0015999999999999999,0.0136
1.2500312507812696,0.1098,-0.0626,-9.8034,-0.0043,0.0015,0.0134
1.2600315007875198,0.1082,-0.0707,-9.7935,-0.004,0.0015,0.0134
1.27003175079377,0.1142,-0.0333,-9.7816,-0.0025,0.0018,0.013699999999999999
1.28003200080002,0.0817,-0.0177,-9.7774,-0.0018,0.0019,0.013699999999999999
1.2900322508062703,0.0987,-0.0232,-9.788499999999999,-0.0021999999999999997,0.0017,0.013699999999999999
1.3000325008125204,0.0865,-0.0439,-9.7725,-0.0026999999999999997,0.0012000000000000001,0.0138
1.3100327508187706,0.10610000000000001,-0.0372,-9.7554,-0.0031,0.0009,0.013699999999999999
1.3200330008250207,0.11549999999999999,-0.0435,-9.7952,-0.002,0.0017,0.0139
1.3300332508312709,0.0764,-0.0366,-9.7912,-0.0005,0.0021999999999999997,0.014100000000000001
1.340033500837521,0.1047,-0.050100000000000006,-9.790899999999999,-0.001,0.0017,0.0139
1.3500337508437712,0.101,-0.0766,-9.7964,-0.0006000000000000001,0.001,0.0136
1.3600340008500214,0.0994,-0.05910000000000001,-9.767299999999999,-0.00019999999999999998,0.0010999999999999998,0.013699999999999999
1.3700342508562715,0.12969999999999998,-0.0375,-9.7927,0.0005,0.0021,0.0139
1.3800345008625217,0.0629,-0.0283,-9.7788,0.0017,0.0021,0.014100000000000001
1.3900347508687718,0.1018,-0.0259,-9.773,0.001,0.0015999999999999999,0.0139
1.400035000875022,0.10319999999999999,-0.057499999999999996,-9.7838,-0.00030000000000000003,0.0013,0.0138
1.4100352508812721,0.0974,-0.0629,-9.7715,-0.00039999999999999996,0.0014,0.014100000000000001
1.4200355008875223,0.1219,-0.0456,-9.7936,0.00030000000000000003,0.0017,0.014100000000000001
1.4300357508937724,0.08499999999999999,-0.0301,-9.7873,0.0021999999999999997,0.0018,0.0143
1.4400360009000226,0.0842,-0.0504,-9.778599999999999,0.0019,0.0015,0.013999999999999999
1.4500362509062728,0.10250000000000001,-0.076,-9.7692,0.0017,0.0012000000000000001,0.013999999999999999
1.460036500912523,0.1082,-0.061399999999999996,-9.7736,0.0021,0.0014,0.0139
1.470036750918773,0.10729999999999999,-0.0304,-9.7818,0.0026999999999999997,0.0018,0.013999999999999999
1.4800370009250232,0.0846,-0.025599999999999998,-9.7973,0.0034,0.002,0.014100000000000001
1.4900372509312734,0.0805,-0.0414,-9.7723,0.0033,0.0015999999999999999,0.013999999999999999
1.5000375009375235,0.10629999999999999,-0.0479,-9.774,0.002,0.0010999999999999998,0.014100000000000001
1.5100377509437737,0.10319999999999999,-0.056400000000000006,-9.765600000000001,0.0017,0.0013,0.0139
1.5200380009500238,0.1122,-0.0302,-9.798399999999999,0.0026,0.0019,0.014499999999999999
1.530038250956274,0.078,-0.012,-9.7884,0.003,0.002,0.0143
1.5400385009625241,0.0996,-0.0579,-9.775699999999999,0.0031,0.0013,0.013999999999999999
1.5500387509687743,0.0992,-0.0732,-9.767199999999999,0.0026,0.0010999999999999998,0.0139
1.5600390009750245,0.09779999999999998,-0.0585,-9.768699999999999,0.0029,0.0017,0.0142
1.5700392509812746,0.11009999999999999,-0.0442,-9.7822,0.0038,0.0019,0.014100000000000001
1.5800395009875248,0.0915,-0.0239,-9.795,0.0048000000000000004,0.0017,0.0142
1.590039750993775,0.0723,-0.0398,-9.7558,0.004,0.0010999999999999998,0.013999999999999999
1.600040001000025,0.1166,-0.0491,-9.7518,0.0034999999999999996,0.0007,0.013999999999999999
1.6100402510062752,0.105,-0.0473,-9.7723,0.0038,0.0013,0.014100000000000001
1.6200405010125254,0.0884,-0.030600000000000002,-9.7631,0.0042,0.0015,0.0144
1.6300407510187755,0.10729999999999999,-0.0391,-9.796899999999999,0.0045000000000000005,0.0018,0.014100000000000001
1.6400410010250257,0.08729999999999999,-0.040799999999999996,-9.7852,0.0042,0.0013,0.0143
1.6500412510312759,0.0996,-0.0492,-9.774099999999999,0.0036,0.0013,0.0139
1.660041501037526,0.0988,-0.051699999999999996,-9.7617,0.0034,0.0012000000000000001,0.014100000000000001
1.6700417510437762,0.10289999999999999,-0.026699999999999998,-9.7729,0.0042,0.0015999999999999999,0.0142
1.6800420010500263,0.09269999999999999,-0.023,-9.7782,0.0045000000000000005,0.0018,0.0142
1.6900422510562765,0.09169999999999999,-0.027,-9.7791,0.0039,0.0013,0.0143
1.7000425010625266,0.09269999999999999,-0.037,-9.768,0.0031999999999999997,0.0009,0.0139
1.7100427510687768,0.1043,-0.055099999999999996,-9.7847,0.003,0.0010999999999999998,0.014100000000000001
1.720043001075027,0.1015,-0.0324,-9.7874,0.004,0.0014,0.014499999999999999
1.730043251081277,0.0945,-0.0372,-9.796899999999999,0.0046,0.0015,0.0142
1.7400435010875273,0.1026,-0.0397,-9.7792,0.0048000000000000004,0.001,0.0143
1.7500437510937774,0.10089999999999999,-0.0642,-9.7804,0.0045000000000000005,0.0012000000000000001,0.0138
1.7600440011000276,0.0786,-0.062200000000000005,-9.782599999999999,0.0046,0.0015,0.0143
1.7700442511062777,0.104,-0.0203,-9.789,0.0063999999999999994,0.0018,0.014499999999999999
1.7800445011125279,0.0912,-0.031,-9.7967,0.0062,0.0015,0.0143
1.790044751118778,0.105,-0.0499,-9.7716,0.0063999999999999994,0.0009,0.0142
1.8000450011250282,0.10389999999999999,-0.0571,-9.7813,0.0053,0.0014,0.0138
1.8100452511312783,0.0847,-0.0422,-9.7755,0.0052,0.0019,0.014499999999999999
1.8200455011375285,0.0956,-0.0207,-9.786,0.0065,0.0023,0.0143
1.8300457511437787,0.095,-0.0301,-9.794500000000001,0.0063999999999999994,0.002,0.0144
1.8400460011500288,0.0962,-0.042,-9.791,0.0059,0.0012000000000000001,0.0143
1.850046251156279,0.1065,-0.0528,-9.792,0.0049,0.0013,0.0139
1.8600465011625291,0.08209999999999999,-0.0474,-9.7774,0.0053,0.0015999999999999999,0.0144
1.8700467511687793,0.0979,0.0010999999999999998,-9.778599999999999,0.0063,0.0018,0.0144
1.8800470011750294,0.0808,-0.0135,-9.7674,0.0058,0.0015999999999999999,0.0143
1.8900472511812796,0.10709999999999999,-0.0546,-9.780800000000001,0.0050999999999999995,0.0013,0.014100000000000001
1.9000475011875297,0.10759999999999999,-0.0624,-9.7901,0.0050999999999999995,0.0018,0.0142
1.91004775119378,0.0863,-0.015799999999999998,-9.7837,0.0053,0.0021,0.0146
1.9200480012000303,0.0947,-0.0078,-9.789299999999999,0.0058,0.0023,0.014499999999999999
1.9300482512062804,0.09169999999999999,-0.029999999999999995,-9.796000000000001,0.006,0.002,0.0144
1.9400485012125306,0.09269999999999999,-0.0481,-9.785,0.005,0.002,0.0142
1.9500487512187807,0.10709999999999999,-0.0404,-9.7768,0.004699999999999999,0.0019,0.0142
1.960049001225031,0.0945,-0.026600000000000002,-9.7799,0.005,0.0024000000000000002,0.0143
1.970049251231281,0.0759,-0.0172,-9.7848,0.0055,0.0026999999999999997,0.014799999999999999
1.9800495012375312,0.1023,-0.0152,-9.8002,0.0046,0.0023,0.0144
1.9900497512437814,0.0893,-0.0481,-9.7813,0.0039,0.0017,0.0143
2.0000500012500315,0.1099,-0.0433,-9.778,0.004,0.0018,0.0143
2.0100502512562817,0.0986,-0.0239,-9.7833,0.004,0.0023,0.014499999999999999
2.020050501262532,0.0783,-0.0226,-9.786,0.0050999999999999995,0.0025,0.0147
2.030050751268782,0.092,-0.0225,-9.7867,0.0048000000000000004,0.0021,0.014499999999999999
2.040051001275032,0.0959,-0.060599999999999994,-9.779,0.0042,0.0019,0.0143
2.0500512512812823,0.10169999999999998,-0.0378,-9.7765,0.0042,0.002,0.014499999999999999
2.0600515012875324,0.0981,-0.0113,-9.7728,0.0041,0.0026999999999999997,0.0147
2.0700517512937826,0.0776,-0.004699999999999999,-9.7901,0.005399999999999999,0.0031,0.014799999999999999
2.0800520013000328,0.08789999999999999,-0.012899999999999998,-9.7833,0.0036,0.0028,0.0147
2.090052251306283,0.0791,-0.0486,-9.7668,0.0036,0.0021,0.0146
2.100052501312533,0.1115,-0.0409,-9.767000000000001,0.0028,0.0023,0.0146
2.1100527513187832,0.1127,-0.0348,-9.797500000000001,0.0031999999999999997,0.0029,0.014799999999999999
2.1200530013250334,0.0663,-0.0399,-9.7943,0.004399999999999999,0.0031,0.014799999999999999
2.1300532513312835,0.0807,-0.010799999999999999,-9.7645,0.0045000000000000005,0.0021999999999999997,0.014799999999999999
2.1400535013375337,0.0901,-0.0562,-9.7608,0.0036999999999999997,0.0018,0.0144
2.150053751343784,0.0999,-0.0572,-9.7647,0.0039,0.002,0.014799999999999999
2.160054001350034,0.0996,-0.0211,-9.7705,0.0057,0.0025,0.0151
2.170054251356284,0.0901,-0.010199999999999999,-9.783999999999999,0.0063999999999999994,0.0026,0.014899999999999998
2.1800545013625343,0.0754,-0.0363,-9.764899999999999,0.006,0.0021999999999999997,0.014899999999999998
2.1900547513687845,0.097,-0.0444,-9.7753,0.0056,0.0021999999999999997,0.014899999999999998
2.2000550013750346,0.0968,-0.0558,-9.7743,0.0053,0.0025,0.0147
2.210055251381285,0.1099,-0.0291,-9.7859,0.0066,0.0029,0.0151
2.220055501387535,0.0716,-0.0257,-9.787999999999998,0.0077,0.0031999999999999997,0.014799999999999999
2.230055751393785,0.0835,-0.0391,-9.773900000000001,0.007899999999999999,0.0026999999999999997,0.0151
2.2400560014000352,0.0891,-0.0457,-9.7717,0.007499999999999999,0.0024000000000000002,0.014799999999999999
2.2500562514062854,0.083,-0.030899999999999997,-9.779599999999999,0.0071,0.0025,0.014899999999999998
2.2600565014125356,0.1033,-0.015799999999999998,-9.7927,0.0078,0.0029,0.0151
2.2700567514187857,0.082,-0.0071,-9.7986,0.0081,0.0026999999999999997,0.014999999999999998
2.280057001425036,0.0772,-0.0236,-9.7608,0.0077,0.0017,0.0151
2.290057251431286,0.10369999999999999,-0.0325,-9.764100000000001,0.0073999999999999995,0.0017,0.014999999999999998
2.300057501437536,0.0893,-0.0272,-9.774,0.0073,0.0025,0.015300000000000001
2.3100577514437863,0.09179999999999999,0.0104,-9.7932,0.0081,0.0031,0.0155
2.3200580014500365,0.0833,0.0161,-9.789499999999999,0.007499999999999999,0.0029,0.015300000000000001
2.3300582514562866,0.0858,-0.0263,-9.7745,0.0062,0.0021,0.0152
2.340058501462537,0.0939,-0.031100000000000003,-9.758600000000001,0.0058,0.0021999999999999997,0.0152
2.350058751468787,0.0928,-0.0116,-9.772599999999999,0.0055,0.0029,0.0154
2.360059001475037,0.0846,0.004399999999999999,-9.7785,0.0062,0.0033,0.0156
2.3700592514812873,0.0667,-0.0135,-9.7638,0.006,0.0029,0.0156
2.3800595014875374,0.1021,-0.0208,-9.7839,0.0055,0.0023,0.0155
2.3900597514937876,0.0813,-0.021599999999999998,-9.764100000000001,0.004699999999999999,0.0024000000000000002,0.0155
2.4000600015000377,0.0921,-0.017499999999999998,-9.779,0.0038,0.0026999999999999997,0.0157
2.410060251506288,0.0774,0.0036,-9.7842,0.0045000000000000005,0.0026,0.015899999999999997
2.420060501512538,0.0722,-0.0066,-9.7542,0.0039,0.0021999999999999997,0.015799999999999998
2.430060751518788,0.1062,-0.0456,-9.769799999999998,0.0036,0.0019,0.0157
2.4400610015250384,0.1099,-0.031599999999999996,-9.7848,0.0036,0.0021999999999999997,0.0157
2.4500612515312885,0.0724,-0.006999999999999999,-9.780999999999999,0.0034999999999999996,0.0028,0.015899999999999997
2.4600615015375387,0.0847,0.0055,-9.7868,0.0036999999999999997,0.0028,0.0161
2.470061751543789,0.0726,0.0057,-9.7605,0.0038,0.0024000000000000002,0.016
2.480062001550039,0.1052,-0.0117,-9.7646,0.0021,0.0021,0.0161
2.490062251556289,0.0963,-0.0275,-9.7696,0.0018,0.0025,0.016
2.5000625015625393,0.0765,-0.015899999999999997,-9.7782,0.0013,0.0029,0.0164
2.5100627515687894,0.0817,0.0048000000000000004,-9.7998,0.0025,0.0029,0.0165
2.5200630015750396,0.0647,-0.0063,-9.7799,0.0025,0.0021999999999999997,0.0162
2.5300632515812898,0.0977,-0.034,-9.758600000000001,0.0021999999999999997,0.0015,0.0162
2.54006350158754,0.1056,-0.049499999999999995,-9.7705,0.0019,0.0018,0.0161
2.55006375159379,0.0986,-0.007899999999999999,-9.7689,0.0015999999999999999,0.0023,0.0167
2.56006400160004,0.0594,0.0104,-9.7797,0.0028,0.0026,0.0165
2.5700642516062904,0.0697,0.0055,-9.7553,0.0021,0.0018,0.0168
2.5800645016125405,0.0995,-0.038099999999999995,-9.7667,0.001,0.0015999999999999999,0.0165
2.5900647516187907,0.0986,-0.0406,-9.7749,0.0006000000000000001,0.002,0.0167
2.600065001625041,0.0982,-0.0101,-9.7866,0.001,0.0025,0.017
2.610065251631291,0.0747,0.0055,-9.7866,0.0026,0.0024000000000000002,0.017
2.620065501637541,0.0613,-0.0103,-9.752099999999999,0.0021999999999999997,0.002,0.017
2.6300657516437913,0.09779999999999998,-0.0439,-9.7834,0.0012000000000000001,0.0017,0.0169
2.6400660016500415,0.10239999999999999,-0.033,-9.773,0.001,0.0019,0.0169
2.6500662516562916,0.10039999999999999,-0.0038,-9.79,0.0012000000000000001,0.0025,0.0173
2.6600665016625418,0.0747,0.0117,-9.780999999999999,0.0024000000000000002,0.0021999999999999997,0.0171
2.670066751668792,0.060899999999999996,-0.017499999999999998,-9.767299999999999,0.0018,0.0015999999999999999,0.0172
2.680067001675042,0.0865,-0.0357,-9.7671,0.0009,0.0014,0.0172
2.6900672516812922,0.1057,-0.037399999999999996,-9.7818,0.001,0.0015999999999999999,0.0171
2.7000675016875424,0.0981,-0.0021999999999999997,-9.8012,0.0010999999999999998,0.0021999999999999997,0.0178
2.7100677516937925,0.055999999999999994,-0.0055,-9.7846,0.0018,0.0019,0.0173
2.7200680017000427,0.0861,-0.027399999999999997,-9.7685,0.0015,0.0012000000000000001,0.017599999999999998
2.730068251706293,0.1109,-0.0308,-9.7842,0.00030000000000000003,0.0014,0.0174
2.740068501712543,0.0845,-0.028699999999999996,-9.7835,-0.0005,0.0019,0.017599999999999998
2.750068751718793,0.0886,0.0056,-9.772699999999999,9.999999999999999e-05,0.0021,0.0179
2.7600690017250433,0.06939999999999999,-0.0076,-9.799,0.00039999999999999996,0.002,0.0177
2.7700692517312935,0.0858,-0.022,-9.773900000000001,-0.0007,0.0014,0.0179
2.7800695017375436,0.1099,-0.0336,-9.7953,-0.0013,0.0015999999999999999,0.017499999999999998
2.790069751743794,0.0772,-0.044,-9.775599999999999,-0.0015,0.0018,0.0178
2.800070001750044,0.0921,-0.0031,-9.7779,-0.00019999999999999998,0.0018,0.0181
2.810070251756294,0.0655,-0.0199,-9.7716,-0.00019999999999999998,0.0017,0.0178
2.8200705017625443,0.10319999999999999,-0.038400000000000004,-9.787700000000001,-0.0006000000000000001,0.0012000000000000001,0.018000000000000002
2.8300707517687944,0.0933,-0.050699999999999995,-9.803799999999999,-0.0007999999999999999,0.0015999999999999999,0.0177
2.8400710017750446,0.0771,-0.0472,-9.789299999999999,-0.001,0.0014,0.0179
2.8500712517812947,0.0984,-0.007899999999999999,-9.780999999999999,0.0005,0.0015,0.0182
2.860071501787545,0.078,-0.0289,-9.7902,0.0009,0.0018,0.018000000000000002
2.870071751793795,0.10120000000000001,-0.048799999999999996,-9.7983,9.999999999999999e-05,0.0015999999999999999,0.0182
2.880072001800045,0.0883,-0.0441,-9.7868,9.999999999999999e-05,0.0017,0.018000000000000002
2.8900722518062953,0.0681,-0.0275,-9.7798,0.0,0.0015999999999999999,0.0183
2.9000725018125455,0.1003,-0.0095,-9.7964,0.00039999999999999996,0.0018,0.0184
2.9100727518187957,0.076,-0.0351,-9.7872,0.0009,0.0015999999999999999,0.0181
2.920073001825046,0.0875,-0.0605,-9.7759,0.0007999999999999999,0.0007,0.0182
2.930073251831296,0.1098,-0.0634,-9.7745,0.0010999999999999998,0.001,0.0179
2.940073501837546,0.07339999999999999,-0.045,-9.7951,0.0019,0.0017,0.0185
2.9500737518437963,0.0847,-0.0193,-9.7982,0.003,0.0018,0.0183
2.9600740018500464,0.0803,-0.0225,-9.804599999999999,0.0031999999999999997,0.0012000000000000001,0.0183
2.9700742518562966,0.078,-0.052199999999999996,-9.7768,0.0026999999999999997,0.0007999999999999999,0.0182
2.9800745018625467,0.1104,-0.0402,-9.770199999999999,0.0024000000000000002,0.001,0.0182
2.990074751868797,0.093,-0.0195,-9.7966,0.0025,0.0017,0.0186
3.000075001875047,0.05999999999999999,-0.0226,-9.7872,0.0036999999999999997,0.0017,0.0186
3.010075251881297,0.0866,-0.0401,-9.7844,0.004,0.0014,0.0186
3.0200755018875474,0.0898,-0.06449999999999999,-9.7887,0.0038,0.0009,0.0184
3.0300757518937975,0.0895,-0.062200000000000005,-9.773,0.004399999999999999,0.0007999999999999999,0.0184
3.0400760019000477,0.10839999999999998,-0.034699999999999995,-9.806099999999999,0.0057,0.0012000000000000001,0.0186
3.050076251906298,0.0654,-0.031,-9.7872,0.0076,0.0012000000000000001,0.0184
3.060076501912548,0.0736,-0.0358,-9.777099999999999,0.0068,0.0007,0.018699999999999998
3.070076751918798,0.086,-0.048299999999999996,-9.7831,0.0067,0.0005,0.0184
3.0800770019250483,0.1001,-0.0428,-9.779599999999999,0.0069,0.0005,0.0184
3.0900772519312985,0.0988,-0.0213,-9.7858,0.007499999999999999,0.0007999999999999999,0.018799999999999997
3.1000775019375486,0.06949999999999999,-0.0221,-9.8048,0.0082,0.001,0.018699999999999998
3.1100777519437988,0.06989999999999999,-0.0314,-9.7801,0.007499999999999999,0.0007,0.018699999999999998
3.120078001950049,0.0899,-0.0469,-9.7982,0.0066,0.0005,0.0186
3.130078251956299,0.1033,-0.0449,-9.7827,0.0063999999999999994,0.00039999999999999996,0.0184
3.1400785019625492,0.0961,-0.0203,-9.8,0.006999999999999999,0.0009,0.0189
3.1500787519687994,0.06509999999999999,-0.027,-9.794500000000001,0.0073,0.001,0.0185
3.1600790019750495,0.0837,-0.031100000000000003,-9.789399999999999,0.006999999999999999,0.00019999999999999998,0.018799999999999997
3.1700792519812997,0.0838,-0.037599999999999995,-9.8009,0.0058,0.00019999999999999998,0.0184
3.18007950198755,0.0896,-0.045,-9.782599999999999,0.0055,9.999999999999999e-05,0.0185
3.1900797519938,0.1072,-0.0173,-9.8063,0.0063999999999999994,0.00039999999999999996,0.018699999999999998
3.20008000200005,0.0566,-0.0406,-9.7964,0.0066,0.00030000000000000003,0.0185
3.2100802520063003,0.0994,-0.0299,-9.7989,0.0069,-0.00019999999999999998,0.0189
3.2200805020125505,0.0839,-0.045899999999999996,-9.8191,0.0066,0.00030000000000000003,0.0183
3.2300807520188006,0.0891,-0.042499999999999996,-9.7888,0.0071,9.999999999999999e-05,0.018699999999999998
3.240081002025051,0.10590000000000001,-0.009600000000000001,-9.814499999999999,0.008,0.0006000000000000001,0.018799999999999997
3.250081252031301,0.0435,-0.0291,-9.7938,0.008,0.00030000000000000003,0.0186
3.260081502037551,0.10629999999999999,-0.0301,-9.8052,0.0073999999999999995,-0.00030000000000000003,0.0186
3.2700817520438012,0.0838,-0.0193,-9.7994,0.0068,-9.999999999999999e-05,0.0185
3.2800820020500514,0.07680000000000001,-0.0286,-9.7987,0.0057,0.00019999999999999998,0.0184
3.2900822520563016,0.09779999999999998,-0.008799999999999999,-9.809800000000001,0.0060999999999999995,0.00030000000000000003,0.0189
3.3000825020625517,0.0642,-0.0178,-9.8075,0.0067,0.0,0.0184
3.310082752068802,0.0982,-0.0325,-9.8009,0.006,-0.0007999999999999999,0.018699999999999998
3.320083002075052,0.09799999999999999,-0.0419,-9.7951,0.0067,-0.0005,0.0184
3.330083252081302,0.07339999999999999,-0.0257,-9.8011,0.0065,0.00019999999999999998,0.018799999999999997
3.3400835020875523,0.0883,-0.0029,-9.814599999999999,0.0071,0.00019999999999999998,0.019
3.3500837520938025,0.07029999999999999,0.0036999999999999997,-9.8068,0.0063999999999999994,-0.00019999999999999998,0.018699999999999998
3.3600840021000526,0.0979,-0.0346,-9.8018,0.0050999999999999995,-0.0007,0.0184
3.370084252106303,0.0947,-0.0368,-9.7915,0.005399999999999999,-0.0006000000000000001,0.018699999999999998
3.380084502112553,0.087,-0.0212,-9.812,0.0052,9.999999999999999e-05,0.0186
3.390084752118803,0.0698,-0.011,-9.8026,0.0063,-9.999999999999999e-05,0.0189
3.4000850021250533,0.08159999999999999,-0.014100000000000001,-9.8058,0.0062,-0.00039999999999999996,0.018699999999999998
3.4100852521313034,0.0899,-0.0407,-9.7903,0.0065,-0.0007,0.0185
3.4200855021375536,0.12789999999999999,-0.0398,-9.8365,0.0065,-0.00019999999999999998,0.0184
3.4300857521438037,0.068,-0.034,-9.8357,0.0069,0.00019999999999999998,0.018799999999999997
3.440086002150054,0.0621,-0.0205,-9.821299999999999,0.0086,-0.00039999999999999996,0.0184
3.450086252156304,0.0785,-0.017,-9.8035,0.0085,-0.0009,0.0184
3.460086502162554,0.0787,-0.0467,-9.789299999999999,0.0086,-0.001,0.0182
3.4700867521688044,0.11839999999999999,-0.0417,-9.8021,0.0083,-0.00039999999999999996,0.0182
3.4800870021750545,0.09309999999999999,-0.037899999999999996,-9.818399999999999,0.0093,-9.999999999999999e-05,0.0184
3.4900872521813047,0.0649,0.0038,-9.8206,0.0103,-0.0006000000000000001,0.0185
3.500087502187555,0.0721,0.0065,-9.8125,0.0093,-0.0009,0.0183
3.510087752193805,0.0942,-0.0228,-9.8172,0.0083,-0.0013,0.0183
3.520088002200055,0.1196,-0.0257,-9.81,0.0072,-0.0007999999999999999,0.0179
3.5300882522063053,0.0912,-0.0029,-9.830400000000001,0.0073999999999999995,-0.00019999999999999998,0.0185
3.5400885022125554,0.06509999999999999,0.0131,-9.8118,0.0081,-0.0,0.0181
3.5500887522188056,0.073,-0.0034999999999999996,-9.8136,0.007499999999999999,-0.0005,0.0181
3.5600890022250558,0.08549999999999999,-0.0421,-9.8067,0.0068,-0.0007999999999999999,0.018000000000000002
3.570089252231306,0.1075,-0.0065,-9.812899999999999,0.0068,-0.0009,0.0179
3.580089502237556,0.0957,0.0113,-9.819899999999999,0.0060999999999999995,-0.0006000000000000001,0.0181
3.590089752243806,0.06509999999999999,-0.0019,-9.8173,0.0073,-0.0007,0.0178
3.6000900022500564,0.0754,-0.0041,-9.808,0.0059,-0.0009,0.018000000000000002
3.6100902522563065,0.09779999999999998,-0.014499999999999999,-9.8279,0.0049,-0.0007999999999999999,0.0178
3.6200905022625567,0.09259999999999999,-0.0305,-9.8389,0.004,-0.0009,0.0177
3.630090752268807,0.10389999999999999,0.0057,-9.833699999999999,0.0050999999999999995,-0.0006000000000000001,0.0182
3.640091002275057,0.07680000000000001,0.0067,-9.813099999999999,0.0066,-0.00039999999999999996,0.0177
3.650091252281307,0.0754,0.0071,-9.8099,0.0060999999999999995,-0.0009,0.0181
3.6600915022875573,0.0756,-0.0031,-9.8059,0.0053,-0.001,0.0179
3.6700917522938075,0.10779999999999999,0.0015,-9.8305,0.004399999999999999,-0.0007999999999999999,0.0177
3.6800920023000576,0.09749999999999999,0.0156,-9.845099999999999,0.0042,-0.0006000000000000001,0.0179
3.6900922523063078,0.0581,0.0152,-9.8127,0.005,-0.0007,0.0178
3.700092502312558,0.0886,-0.0025,-9.8183,0.0049,-0.0012000000000000001,0.0177
3.710092752318808,0.0911,-0.0010999999999999998,-9.818499999999998,0.004399999999999999,-0.0012000000000000001,0.0178
3.7200930023250582,0.0833,0.0121,-9.8084,0.004,-0.0007999999999999999,0.0178
3.7300932523313084,0.10219999999999999,0.0344,-9.836599999999999,0.004,-0.00039999999999999996,0.018000000000000002
3.7400935023375586,0.0665,0.0201,-9.8302,0.0038,-0.0005,0.0178
3.7500937523438087,0.0857,0.0092,-9.818999999999999,0.0031,-0.001,0.018000000000000002
3.760094002350059,0.10740000000000001,0.0072,-9.8378,0.002,-0.0012000000000000001,0.0177
3.770094252356309,0.0825,-0.0018,-9.829699999999999,0.002,-0.0009,0.0177
3.780094502362559,0.0848,0.0387,-9.8112,0.0023,-0.0007,0.0182
3.7900947523688093,0.0858,0.0092,-9.8149,0.0025,-0.0009,0.017599999999999998
3.8000950023750595,0.0862,-0.0029,-9.809,0.0025,-0.0014,0.0179
3.8100952523813096,0.086,0.0083,-9.8141,0.0025,-0.0010999999999999998,0.0177
3.82009550238756,0.0809,0.0172,-9.8161,0.0023,-0.001,0.018000000000000002
3.83009575239381,0.0942,0.0368,-9.8295,0.0031,-0.0010999999999999998,0.0181
3.8400960024000605,0.0797,0.0415,-9.822799999999999,0.0026,-0.0014,0.0181
3.8500962524063107,0.1005,0.0189,-9.7987,0.0017,-0.0018,0.0178
3.860096502412561,0.1065,-0.0139,-9.8224,0.0007999999999999999,-0.0015,0.017599999999999998
3.870096752418811,0.0805,-0.014899999999999998,-9.816999999999998,0.002,-0.0007,0.018000000000000002
3.880097002425061,0.0892,0.015899999999999997,-9.8415,0.0031999999999999997,-0.00030000000000000003,0.018000000000000002
3.8900972524313113,0.0665,0.0073,-9.8453,0.0034,-0.0007999999999999999,0.0177
3.9000975024375615,0.0851,-0.00019999999999999998,-9.8252,0.0031,-0.0014,0.0177
3.9100977524438116,0.09259999999999999,0.0007,-9.8374,0.003,-0.0012000000000000001,0.0174
3.920098002450062,0.0906,-0.01,-9.8539,0.0017,-0.0005,0.0177
3.930098252456312,0.08689999999999999,0.0342,-9.8591,0.0026,-0.00039999999999999996,0.0179
3.940098502462562,0.0604,-0.0038,-9.8388,0.0021,-0.001,0.0172
3.9500987524688123,0.0997,-0.0642,-9.8481,0.0036999999999999997,-0.0013,0.0173
3.9600990024750624,0.095,-0.0787,-9.875,0.0062,-0.00019999999999999998,0.0169
3.9700992524813126,0.0928,-0.0284,-9.8928,0.0089,0.00030000000000000003,0.0172
3.9800995024875627,0.061,0.0262,-9.8763,0.0107,9.999999999999999e-05,0.017
3.990099752493813,0.0607,0.015799999999999998,-9.8242,0.010799999999999999,-0.0009,0.0172
4.000100002500063,0.0945,-0.0013,-9.8204,0.0117,-0.0012000000000000001,0.017
4.010100252506313,0.0945,0.0232,-9.84,0.012,-0.0005,0.0169
4.020100502512563,0.0875,0.0113,-9.855500000000001,0.0124,0.0,0.017
4.0301007525188135,0.0732,0.0154,-9.8413,0.0147,-0.00030000000000000003,0.017
4.040101002525064,0.061,0.0071,-9.825399999999998,0.0151,-0.00030000000000000003,0.0166
4.050101252531314,0.1006,-0.0132,-9.850100000000001,0.0146,-0.00019999999999999998,0.0164
4.060101502537564,0.0991,0.0005,-9.8646,0.0147,0.0005,0.0163
4.070101752543814,0.0726,0.025500000000000002,-9.8498,0.0144,0.0007999999999999999,0.0164
4.080102002550064,0.0795,0.0504,-9.8302,0.014899999999999998,0.0007999999999999999,0.0164
4.090102252556314,0.07039999999999999,0.0568,-9.8416,0.0142,0.001,0.0164
4.100102502562565,0.0775,0.0484,-9.8335,0.0127,0.0007,0.0164
4.110102752568815,0.0945,0.020900000000000002,-9.8506,0.0114,0.0006000000000000001,0.0162
4.120103002575065,0.0708,0.0083,-9.859399999999999,0.0115,0.0007999999999999999,0.0163
4.130103252581315,0.06939999999999999,0.054299999999999994,-9.848700000000001,0.0125,0.0006000000000000001,0.0165
4.140103502587565,0.06319999999999999,0.0524,-9.8399,0.0123,0.00039999999999999996,0.0161
4.150103752593815,0.0916,0.013999999999999999,-9.839699999999999,0.0124,9.999999999999999e-05,0.016
4.1601040026000655,0.0805,0.0247,-9.8279,0.012799999999999999,0.0005,0.015799999999999998
4.170104252606316,0.0771,0.037899999999999996,-9.8355,0.0119,0.0010999999999999998,0.015899999999999997
4.180104502612566,0.0851,0.0608,-9.8584,0.012899999999999998,0.0014,0.016
4.190104752618816,0.059199999999999996,0.0714,-9.848999999999998,0.013,0.0012000000000000001,0.0157
4.200105002625066,0.0769,0.046299999999999994,-9.8413,0.0121,0.00039999999999999996,0.015799999999999998
4.210105252631316,0.0867,0.048799999999999996,-9.8246,0.0119,0.0007,0.0157
4.2201055026375665,0.0962,0.0388,-9.8373,0.0118,0.0019,0.0156
4.230105752643817,0.0803,0.0728,-9.855899999999998,0.0126,0.0021999999999999997,0.0164
4.240106002650067,0.0412,0.057999999999999996,-9.8357,0.0138,0.0019,0.0156
4.250106252656317,0.0721,0.0446,-9.8464,0.013,0.001,0.015899999999999997
4.260106502662567,0.0955,0.0482,-9.8355,0.0131,0.0012000000000000001,0.0154
4.270106752668817,0.0882,0.053,-9.8591,0.0121,0.0015,0.0152
4.280107002675067,0.0785,0.0639,-9.850499999999998,0.013,0.0017,0.0155
4.2901072526813175,0.0355,0.0772,-9.819600000000001,0.0142,0.0013,0.0152
4.300107502687568,0.0732,0.0669,-9.8316,0.0126,0.001,0.0154
4.310107752693818,0.0914,0.0436,-9.8386,0.0124,0.0015,0.014999999999999998
4.320108002700068,0.0992,0.0605,-9.843,0.012,0.002,0.0151
4.330108252706318,0.0825,0.08679999999999999,-9.8605,0.0114,0.0024000000000000002,0.0154
4.340108502712568,0.0387,0.0755,-9.8275,0.0126,0.0021,0.0151
4.3501087527188185,0.0737,0.0804,-9.8339,0.0112,0.0017,0.0151
4.360109002725069,0.07579999999999999,0.0491,-9.831,0.0103,0.0019,0.014999999999999998
4.370109252731319,0.105,0.0728,-9.8276,0.009899999999999999,0.0023,0.014799999999999999
4.380109502737569,0.0755,0.0901,-9.861799999999999,0.009600000000000001,0.0029,0.014999999999999998
4.390109752743819,0.0354,0.10289999999999999,-9.848999999999998,0.0106,0.0026999999999999997,0.014799999999999999
4.400110002750069,0.0666,0.1083,-9.8326,0.0087,0.002,0.014899999999999998
4.410110252756319,0.0803,0.0692,-9.8427,0.0073,0.0019,0.0144
4.42011050276257,0.09309999999999999,0.07619999999999999,-9.8486,0.0066,0.0021999999999999997,0.0146
4.43011075276882,0.0756,0.106,-9.8621,0.0063,0.0029,0.0146
4.44011100277507,0.0455,0.11689999999999999,-9.8305,0.0066,0.0025,0.0146
4.45011125278132,0.0626,0.0952,-9.8072,0.0059,0.0021,0.0144
4.46011150278757,0.0898,0.0679,-9.8179,0.005,0.0024000000000000002,0.0143
4.47011175279382,0.09709999999999999,0.0546,-9.8515,0.0045000000000000005,0.0031,0.0144
4.4801120028000705,0.057499999999999996,0.0817,-9.867199999999999,0.005399999999999999,0.0033,0.014499999999999999
4.490112252806321,0.0452,0.1134,-9.8315,0.0063999999999999994,0.0028,0.014499999999999999
4.500112502812571,0.0702,0.10349999999999998,-9.8177,0.0053,0.0023,0.0142
4.510112752818821,0.0776,0.0751,-9.8102,0.0048000000000000004,0.0024000000000000002,0.014100000000000001
4.520113002825071,0.0911,0.0828,-9.8119,0.0046,0.003,0.013699999999999999
4.530113252831321,0.063,0.09749999999999999,-9.8457,0.0034999999999999996,0.0034,0.014499999999999999
4.540113502837571,0.0604,0.126,-9.8245,0.0048000000000000004,0.0033,0.013999999999999999
4.550113752843822,0.0582,0.10809999999999999,-9.828000000000001,0.0036999999999999997,0.0028,0.0139
4.560114002850072,0.0611,0.0829,-9.8239,0.0029,0.0026999999999999997,0.013999999999999999
4.570114252856322,0.08549999999999999,0.111,-9.8332,0.0024000000000000002,0.0029,0.0138
4.580114502862572,0.0647,0.1109,-9.8432,0.0014,0.0034,0.0139
4.590114752868822,0.0774,0.09430000000000001,-9.839,0.0025,0.0033,0.0138
4.600115002875072,0.0433,0.11009999999999999,-9.8295,0.0026999999999999997,0.0031,0.0138
4.6101152528813225,0.053899999999999997,0.1013,-9.814599999999999,0.0018,0.0026999999999999997,0.0138
4.620115502887573,0.0929,0.111,-9.8166,0.0018,0.0029,0.0135
4.630115752893823,0.06449999999999999,0.0925,-9.8335,0.0009,0.0036,0.0138
4.640116002900073,0.06570000000000001,0.1235,-9.8378,0.0015,0.0034999999999999996,0.013999999999999999
4.650116252906323,0.0448,0.1214,-9.828000000000001,0.0013,0.0033,0.013699999999999999
4.660116502912573,0.078,0.0994,-9.824,0.0007999999999999999,0.0028,0.0136
4.670116752918823,0.0793,0.0947,-9.818399999999999,0.00030000000000000003,0.0031999999999999997,0.0134
4.680117002925074,0.0706,0.09849999999999999,-9.8414,-0.00039999999999999996,0.0038,0.0136
4.690117252931324,0.061200000000000004,0.1342,-9.8348,0.0007999999999999999,0.0039,0.0138
4.700117502937574,0.0442,0.133,-9.8154,0.00030000000000000003,0.0034999999999999996,0.0136
4.710117752943824,0.0629,0.1047,-9.814499999999999,-0.0007999999999999999,0.0029,0.013699999999999999
4.720118002950074,0.079,0.0977,-9.818499999999998,-0.0009,0.0031,0.0134
4.730118252956324,0.0863,0.0915,-9.8285,-0.001,0.0038,0.0135
4.7401185029625745,0.05739999999999999,0.11839999999999999,-9.8295,-0.00039999999999999996,0.0039,0.0139
4.750118752968825,0.0308,0.132,-9.818999999999999,0.0005,0.0034999999999999996,0.0134
4.760119002975075,0.0607,0.1082,-9.8102,-0.0006000000000000001,0.0029,0.0134
4.770119252981325,0.0669,0.0896,-9.7971,-0.001,0.003,0.013300000000000001
4.780119502987575,0.10729999999999999,0.1077,-9.8281,-0.0018,0.0038,0.0131
4.790119752993825,0.044,0.11009999999999999,-9.8299,-0.002,0.0043,0.0134
4.8001200030000755,0.0344,0.12669999999999998,-9.8082,-0.0015999999999999999,0.0036999999999999997,0.013300000000000001
4.810120253006326,0.060899999999999996,0.1098,-9.8033,-0.0031,0.0031,0.0132
4.820120503012576,0.0707,0.10629999999999999,-9.8086,-0.0041,0.0033,0.0132
4.830120753018826,0.0814,0.1191,-9.8124,-0.0056,0.0036,0.012799999999999999
4.840121003025076,0.0716,0.1201,-9.8545,-0.0057,0.0041,0.0134
4.850121253031326,0.0207,0.12589999999999998,-9.8097,-0.0055,0.0039,0.012899999999999998
4.860121503037576,0.0519,0.124,-9.8058,-0.0063,0.0033,0.0131
4.8701217530438266,0.05910000000000001,0.09269999999999999,-9.8074,-0.007899999999999999,0.0031999999999999997,0.012899999999999998
4.880122003050077,0.0867,0.09749999999999999,-9.826,-0.0082,0.0033,0.0126
4.890122253056327,0.0696,0.122,-9.818499999999998,-0.0086,0.0039,0.012899999999999998
4.900122503062577,0.0321,0.117,-9.8165,-0.0077,0.0038,0.0126
4.910122753068827,0.0313,0.12489999999999998,-9.7875,-0.0085,0.0029,0.0126
4.920123003075077,0.0696,0.0952,-9.7938,-0.009899999999999999,0.0029,0.0125
4.9301232530813275,0.0787,0.0997,-9.8048,-0.0098,0.0034999999999999996,0.0124
4.940123503087578,0.0556,0.09799999999999999,-9.835199999999999,-0.0101,0.0043,0.0126
4.950123753093828,0.0301,0.1303,-9.8347,-0.009000000000000001,0.0042,0.013
4.960124003100078,0.044700000000000004,0.1356,-9.806099999999999,-0.0098,0.0033,0.0125
4.970124253106328,0.052899999999999996,0.0871,-9.7997,-0.0111,0.0029,0.0124
4.980124503112578,0.0819,0.0781,-9.802,-0.010799999999999999,0.0034,0.012199999999999999
4.990124753118828,0.0477,0.0921,-9.8042,-0.0104,0.004399999999999999,0.0125
5.000125003125079,0.0385,0.10959999999999999,-9.827399999999999,-0.0097,0.0042,0.0124
5.010125253131329,0.0335,0.10790000000000001,-9.8073,-0.0101,0.0033,0.0121
5.020125503137579,0.0686,0.0952,-9.796299999999999,-0.0106,0.0028,0.012
5.030125753143829,0.0674,0.0898,-9.7932,-0.0105,0.0031,0.0119
5.040126003150079,0.0485,0.0875,-9.81,-0.0106,0.0039,0.012199999999999999
5.050126253156329,0.0513,0.136,-9.8368,-0.009899999999999999,0.0041,0.0126
5.0601265031625795,0.0257,0.1343,-9.812,-0.0109,0.0034,0.012199999999999999
5.07012675316883,0.0514,0.0957,-9.794500000000001,-0.012,0.0024000000000000002,0.0121
5.08012700317508,0.0751,0.08739999999999999,-9.7998,-0.012199999999999999,0.0031,0.0118
5.09012725318133,0.0476,0.08789999999999999,-9.804499999999999,-0.012199999999999999,0.0042,0.012199999999999999
5.10012750318758,0.0525,0.1159,-9.8251,-0.0117,0.004399999999999999,0.0121
5.11012775319383,0.028200000000000003,0.10239999999999999,-9.8169,-0.0115,0.004,0.012
5.12012800320008,0.0482,0.108,-9.8043,-0.012199999999999999,0.0031999999999999997,0.0121
5.130128253206331,0.061700000000000005,0.0916,-9.8064,-0.0132,0.0034999999999999996,0.0115
5.140128503212581,0.0468,0.0881,-9.7951,-0.0136,0.0036999999999999997,0.0121
5.150128753218831,0.0567,0.10590000000000001,-9.812899999999999,-0.0126,0.0041,0.012
5.160129003225081,0.018799999999999997,0.0991,-9.8036,-0.0117,0.0036,0.0121
5.170129253231331,0.0492,0.0977,-9.8013,-0.0123,0.0028,0.012
5.180129503237581,0.0467,0.0905,-9.7946,-0.013,0.003,0.0118
5.1901297532438315,0.067,0.0688,-9.8058,-0.013,0.0033,0.0118
5.200130003250082,0.056999999999999995,0.09219999999999999,-9.8104,-0.0117,0.0039,0.0121
5.210130253256332,0.0181,0.1057,-9.790600000000001,-0.0107,0.0039,0.012
5.220130503262582,0.0364,0.0961,-9.7863,-0.0114,0.0033,0.012
5.230130753268832,0.0404,0.07629999999999999,-9.786499999999998,-0.0116,0.0033,0.0116
5.240131003275082,0.062,0.0725,-9.804499999999999,-0.0123,0.0036999999999999997,0.0118
5.2501312532813325,0.0557,0.10540000000000001,-9.8311,-0.0121,0.0041,0.0121
5.260131503287583,0.0015,0.1056,-9.8004,-0.0112,0.0036999999999999997,0.0116
5.270131753293833,0.0371,0.0858,-9.7847,-0.0114,0.003,0.0118
5.280132003300083,0.043,0.0671,-9.7813,-0.0119,0.0031999999999999997,0.0118
5.290132253306333,0.0698,0.0789,-9.7956,-0.0119,0.0036999999999999997,0.0117
5.300132503312583,0.0401,0.08789999999999999,-9.822899999999999,-0.0118,0.004,0.012
5.310132753318833,0.012,0.1121,-9.8071,-0.010799999999999999,0.0036,0.0118
5.3201330033250835,0.024499999999999997,0.0892,-9.7765,-0.0121,0.0029,0.0116
5.330133253331334,0.054799999999999995,0.0655,-9.7869,-0.012199999999999999,0.0026999999999999997,0.0117
5.340133503337584,0.0671,0.0772,-9.799299999999999,-0.0125,0.0033,0.0114
5.350133753343834,0.0395,0.0847,-9.8039,-0.0126,0.0039,0.0119
5.360134003350084,-0.0009,0.09709999999999999,-9.792,-0.0119,0.0034,0.0118
5.370134253356334,0.0239,0.1106,-9.7622,-0.012799999999999999,0.0026999999999999997,0.0118
5.3801345033625845,0.0626,0.07339999999999999,-9.7805,-0.013699999999999999,0.0029,0.0115
5.390134753368835,0.043399999999999994,0.0621,-9.785499999999999,-0.0139,0.0034,0.0117
5.400135003375085,0.0301,0.0653,-9.8057,-0.0139,0.0036999999999999997,0.0118
5.410135253381335,0.0276,0.1021,-9.8111,-0.012799999999999999,0.0036,0.0118
5.420135503387585,0.0172,0.1092,-9.7746,-0.0135,0.0029,0.0116
5.430135753393835,0.0312,0.056999999999999995,-9.7677,-0.0151,0.0026,0.0113
5.440136003400085,0.0578,0.061,-9.7829,-0.0156,0.0031,0.0114
5.450136253406336,0.026099999999999998,0.07619999999999999,-9.7989,-0.0162,0.0036999999999999997,0.0117
5.460136503412586,0.04,0.0954,-9.7995,-0.015899999999999997,0.0034999999999999996,0.0116
5.470136753418836,0.0167,0.08850000000000001,-9.7898,-0.0168,0.0028,0.0116
5.480137003425086,0.0252,0.051199999999999996,-9.777099999999999,-0.0179,0.0024000000000000002,0.0114
5.490137253431336,0.052700000000000004,0.0723,-9.7921,-0.0184,0.0024000000000000002,0.0115
5.500137503437586,0.0179,0.0807,-9.7835,-0.0191,0.0031,0.0116
5.5101377534438365,0.042,0.08689999999999999,-9.7938,-0.0185,0.0033,0.0117
5.520138003450087,0.0005,0.06939999999999999,-9.7693,-0.0191,0.0029,0.0116
5.530138253456337,0.0332,0.0508,-9.7773,-0.0202,0.0024000000000000002,0.0114
5.540138503462587,0.052,0.0414,-9.7917,-0.0201,0.0026,0.0112
5.550138753468837,0.0278,0.056400000000000006,-9.789299999999999,-0.0203,0.0033,0.0115
5.560139003475087,0.0343,0.0727,-9.7937,-0.020399999999999998,0.0031999999999999997,0.0114
5.570139253481337,-0.0117,0.07339999999999999,-9.779,-0.0202,0.0028,0.0114
5.580139503487588,0.0219,0.06989999999999999,-9.7699,-0.021699999999999997,0.0023,0.0115
5.590139753493838,0.0414,0.042499999999999996,-9.7774,-0.0221,0.0025,0.0114
5.600140003500088,0.0334,0.0409,-9.7799,-0.0224,0.0026999999999999997,0.0115
5.610140253506338,0.020399999999999998,0.0594,-9.7814,-0.0215,0.0029,0.0119
5.620140503512588,0.0091,0.0523,-9.7782,-0.0212,0.0025,0.0114
5.630140753518838,0.0185,0.0415,-9.7799,-0.0219,0.002,0.0116
5.6401410035250885,0.0315,0.0264,-9.773,-0.0228,0.0019,0.0112
5.650141253531339,0.038400000000000004,0.0154,-9.774199999999999,-0.0225,0.0024000000000000002,0.0112
5.660141503537589,0.037,0.0391,-9.7854,-0.0215,0.0029,0.0114
5.670141753543839,-0.009899999999999999,0.047,-9.7714,-0.0207,0.0028,0.0113
5.680142003550089,0.018000000000000002,0.0357,-9.7736,-0.0213,0.0021999999999999997,0.0114
5.690142253556339,0.029500000000000002,0.009600000000000001,-9.796199999999999,-0.0221,0.0023,0.011
5.7001425035625894,0.025,0.0050999999999999995,-9.7751,-0.0228,0.0024000000000000002,0.0114
5.71014275356884,0.0401,0.037899999999999996,-9.7867,-0.0219,0.0026,0.0114
5.72014300357509,-0.0092,0.0181,-9.7731,-0.020900000000000002,0.0024000000000000002,0.0112
5.73014325358134,0.0111,0.0173,-9.7746,-0.0211,0.0019,0.0115
5.74014350358759,0.021599999999999998,-0.0063999999999999994,-9.760399999999999,-0.0207,0.002,0.011
5.75014375359384,0.0525,0.0068,-9.7941,-0.0203,0.0021999999999999997,0.0111
5.76014400360009,0.0144,0.003,-9.799900000000001,-0.019,0.0028,0.0112
5.7701442536063405,-0.0055,0.0132,-9.7931,-0.0165,0.0026,0.0112
5.780144503612591,0.014100000000000001,0.019200000000000002,-9.7764,-0.0168,0.0021,0.0112
5.790144753618841,0.026600000000000002,-0.0151,-9.7813,-0.0162,0.0021,0.0109
5.800145003625091,0.04,0.0036,-9.7942,-0.0161,0.0023,0.011
5.810145253631341,0.026,-0.0018,-9.8155,-0.0156,0.003,0.0112
5.820145503637591,-0.0147,0.018799999999999997,-9.7878,-0.0138,0.0026999999999999997,0.011
5.8301457536438415,0.0066,0.0131,-9.754999999999999,-0.014100000000000001,0.002,0.011
5.840146003650092,0.0183,-0.031,-9.7576,-0.013999999999999999,0.0019,0.0111
5.850146253656342,0.050100000000000006,0.0048000000000000004,-9.7917,-0.013999999999999999,0.0025,0.011
5.860146503662592,-0.0017,-0.010199999999999999,-9.7921,-0.014100000000000001,0.0031,0.0112
5.870146753668842,0.0124,0.009000000000000001,-9.7974,-0.0131,0.0026999999999999997,0.0114
5.880147003675092,-0.0092,0.0135,-9.7845,-0.013300000000000001,0.0023,0.011
5.890147253681342,0.0248,-0.0144,-9.764399999999998,-0.0136,0.002,0.0109
5.9001475036875926,0.043399999999999994,-0.0183,-9.7923,-0.0136,0.0026,0.0107
5.910147753693843,-0.0005,-0.0201,-9.7752,-0.0124,0.0034,0.011
5.920148003700093,0.009000000000000001,-0.0033,-9.7704,-0.0111,0.0033,0.0111
5.930148253706343,0.0143,-0.002,-9.7814,-0.010799999999999999,0.003,0.011
5.940148503712593,0.0073,-0.0219,-9.7783,-0.0106,0.0026999999999999997,0.010799999999999999
5.950148753718843,0.0249,-0.0304,-9.7842,-0.0112,0.0028,0.0107
5.9601490037250935,0.0018,-0.0281,-9.7872,-0.011,0.0029,0.011
5.970149253731344,0.0213,-0.0013,-9.7835,-0.009600000000000001,0.0031,0.010799999999999999
5.980149503737594,-0.018000000000000002,-0.0048000000000000004,-9.7816,-0.009399999999999999,0.003,0.011
5.990149753743844,0.0073999999999999995,-0.038099999999999995,-9.7677,-0.0092,0.0024000000000000002,0.0106
6.000150003750094,0.033,-0.0292,-9.770199999999999,-0.0095,0.0026999999999999997,0.0107
6.010150253756344,0.0006000000000000001,-0.0299,-9.7683,-0.0089,0.0036,0.010799999999999999
6.020150503762594,0.0114,-0.009399999999999999,-9.7887,-0.0078,0.0034999999999999996,0.0109
6.030150753768845,-0.0056,-0.0144,-9.782,-0.0073,0.0033,0.010799999999999999
6.040151003775095,0.0031999999999999997,-0.025,-9.7749,-0.007499999999999999,0.0029,0.0109
6.050151253781345,0.0119,-0.022699999999999998,-9.760399999999999,-0.007499999999999999,0.0029,0.0104
6.060151503787595,0.0207,-0.0452,-9.7714,-0.0077,0.0034,0.0105
6.070151753793845,0.0257,-0.0354,-9.7776,-0.0058,0.0039,0.0109
6.080152003800095,-0.017599999999999998,-0.0195,-9.7734,-0.0039,0.0038,0.0105
6.0901522538063455,-0.013699999999999999,-0.0368,-9.7645,-0.0036,0.0031999999999999997,0.0107
6.100152503812596,0.0289,-0.0373,-9.765600000000001,-0.0028,0.0031,0.0106
6.110152753818846,0.014999999999999998,-0.0428,-9.7812,-0.0021,0.0038,0.0106
6.120153003825096,0.0113,-0.0134,-9.796000000000001,-0.001,0.004,0.0109
6.130153253831346,-0.022699999999999998,0.002,-9.7659,-0.0007999999999999999,0.0036,0.010799999999999999
6.140153503837596,-0.0026,-0.036000000000000004,-9.7597,-0.001,0.0031,0.0106
6.150153753843846,0.0263,-0.0404,-9.769799999999998,-0.0014,0.0033,0.0105
6.160154003850097,0.0146,-0.0317,-9.773,-0.0006000000000000001,0.004,0.0107
6.170154253856347,0.009000000000000001,-0.0201,-9.782599999999999,0.00019999999999999998,0.004399999999999999,0.0107
6.180154503862597,-0.0119,-0.010799999999999999,-9.7874,0.0007999999999999999,0.0042,0.010799999999999999
6.190154753868847,-0.014999999999999998,-0.0163,-9.765799999999999,0.00030000000000000003,0.004,0.0106
6.200155003875097,0.0119,-0.0275,-9.7637,-9.999999999999999e-05,0.004,0.0106
6.210155253881347,0.0181,-0.0338,-9.7812,-0.0006000000000000001,0.0045000000000000005,0.0107
6.2201555038875975,0.0134,-0.0313,-9.7931,-0.0005,0.004699999999999999,0.0106
6.230155753893848,-0.025099999999999997,0.0026999999999999997,-9.7728,0.00030000000000000003,0.0045000000000000005,0.011
6.240156003900098,-0.013999999999999999,-0.005399999999999999,-9.7534,-0.0006000000000000001,0.0041,0.0106
6.250156253906348,0.00019999999999999998,-0.0563,-9.7487,-0.001,0.004,0.0106
6.260156503912598,0.022699999999999998,-0.048,-9.765699999999999,-9.999999999999999e-05,0.0043,0.010799999999999999
6.270156753918848,0.0023,-0.0283,-9.7791,0.001,0.0049,0.010799999999999999
6.2801570039250985,-0.0239,-0.0166,-9.766399999999999,0.002,0.0048000000000000004,0.0109
6.290157253931349,-0.013,-0.0276,-9.7533,0.0021999999999999997,0.0042,0.0107
6.300157503937599,0.0076,-0.031100000000000003,-9.7381,0.0018,0.0039,0.0105
6.310157753943849,0.027099999999999996,-0.0451,-9.7736,0.0014,0.0048000000000000004,0.0104
6.320158003950099,-0.0126,-0.0431,-9.7631,0.0023,0.0056,0.0106
6.330158253956349,-0.0196,-0.029799999999999997,-9.7678,0.0034,0.0055,0.0107
6.340158503962599,-0.0163,-0.032299999999999995,-9.7429,0.0036,0.0048000000000000004,0.0106
6.3501587539688495,0.0012000000000000001,-0.043199999999999995,-9.7539,0.0034999999999999996,0.0048000000000000004,0.0106
6.3601590039751,0.0103,-0.0349,-9.7615,0.0036999999999999997,0.005,0.0106
6.37015925398135,0.0014,-0.028999999999999998,-9.7758,0.004,0.0055,0.010799999999999999
6.3801595039876,-0.0235,-0.012199999999999999,-9.7594,0.0048000000000000004,0.0052,0.0109
6.39015975399385,-0.024499999999999997,-0.0065,-9.743,0.0049,0.004699999999999999,0.0106
6.4001600040001,-0.0042,-0.053899999999999997,-9.7412,0.004,0.0046,0.0105
6.4101602540063505,0.021599999999999998,-0.0518,-9.7558,0.0050999999999999995,0.0050999999999999995,0.0105
6.420160504012601,-0.0072,-0.0412,-9.7728,0.005399999999999999,0.006,0.0104
6.430160754018851,-0.022699999999999998,-0.0221,-9.778,0.0071,0.0056,0.010799999999999999
6.440161004025101,-0.0353,-0.0154,-9.738299999999999,0.0078,0.0049,0.0105
6.450161254031351,0.005399999999999999,-0.029300000000000003,-9.739799999999999,0.0072,0.0046,0.0107
6.460161504037601,0.008799999999999999,-0.0424,-9.7524,0.0073999999999999995,0.005399999999999999,0.0104
6.470161754043851,-0.026,-0.0362,-9.7549,0.006999999999999999,0.0062,0.0107
6.480162004050102,-0.0138,-0.0076,-9.7667,0.007899999999999999,0.0063,0.0109
6.490162254056352,-0.0325,-0.0168,-9.748199999999999,0.0078,0.0056,0.0106
6.500162504062602,-0.0111,-0.0528,-9.7507,0.0076,0.0052,0.0105
6.510162754068852,0.0007,-0.0476,-9.7501,0.0083,0.005399999999999999,0.0106
6.520163004075102,-0.0101,-0.0257,-9.7577,0.008799999999999999,0.006,0.0106
6.530163254081352,-0.0135,-0.0202,-9.7487,0.0104,0.0060999999999999995,0.0107
6.5401635040876025,-0.024,-0.0073999999999999995,-9.7394,0.0111,0.0055,0.0105
6.550163754093853,-0.0174,-0.0294,-9.7348,0.010799999999999999,0.0053,0.0104
6.560164004100103,-0.0066,-0.0377,-9.7445,0.0113,0.0056,0.0103
6.570164254106353,-0.0173,-0.0177,-9.750399999999999,0.0105,0.0062,0.0105
6.580164504112603,-0.008799999999999999,-0.0333,-9.7681,0.0113,0.0063999999999999994,0.0106
6.590164754118853,-0.0344,-0.0161,-9.7459,0.012799999999999999,0.0060999999999999995,0.0107
6.600165004125103,-0.028499999999999998,-0.0189,-9.7325,0.012,0.0056,0.0104
6.610165254131354,-0.001,-0.0386,-9.728100000000001,0.012199999999999999,0.0057,0.0105
6.620165504137604,-0.0262,-0.0116,-9.728100000000001,0.0125,0.0062,0.0106
6.630165754143854,-0.0142,0.0068,-9.732899999999999,0.013300000000000001,0.0063999999999999994,0.0107
6.640166004150104,-0.028999999999999998,-0.0226,-9.7459,0.0136,0.0062,0.0105
6.650166254156354,-0.0348,-0.0383,-9.7475,0.0136,0.0057,0.0106
6.660166504162604,-0.014499999999999999,-0.0276,-9.7192,0.0143,0.0057,0.0104
6.6701667541688545,-0.0193,-0.014899999999999998,-9.7425,0.0138,0.0062,0.0106
6.680167004175105,-0.008,-0.0045000000000000005,-9.7508,0.0154,0.0066,0.0105
6.690167254181355,-0.0474,0.0012000000000000001,-9.750300000000001,0.0154,0.0065,0.0106
6.700167504187605,-0.0315,-0.0116,-9.7354,0.014799999999999999,0.0058,0.0105
6.710167754193855,-0.0135,-0.0243,-9.7251,0.0146,0.0059,0.010199999999999999
6.720168004200105,-0.0169,-0.0212,-9.749099999999999,0.014799999999999999,0.0063999999999999994,0.0107
6.7301682542063554,-0.0211,0.0053,-9.7598,0.0156,0.0068,0.0107
6.740168504212606,-0.0412,-0.00019999999999999998,-9.7471,0.0162,0.0065,0.0107
6.750168754218856,-0.0326,0.0018,-9.7261,0.015799999999999998,0.0058,0.0106
6.760169004225106,-0.0194,-0.014100000000000001,-9.718,0.0154,0.0060999999999999995,0.0105
6.770169254231356,-0.025,-0.021599999999999998,-9.7392,0.015799999999999998,0.0066,0.0107
6.780169504237606,-0.0182,0.0163,-9.747,0.0163,0.006999999999999999,0.0107
6.790169754243856,-0.0528,0.0125,-9.7509,0.017,0.0066,0.0107
6.8001700042501065,-0.0392,0.014899999999999998,-9.7225,0.0167,0.0056,0.0107
6.810170254256357,-0.0167,0.001,-9.7165,0.0165,0.0057,0.0107
6.820170504262607,-0.0212,0.0005,-9.721599999999999,0.0167,0.0066,0.0106
6.830170754268857,-0.025799999999999997,0.0203,-9.7358,0.0173,0.0071,0.0112
6.840171004275107,-0.0528,0.026,-9.732899999999999,0.0183,0.006999999999999999,0.011
6.850171254281357,-0.037399999999999996,0.0085,-9.7414,0.0169,0.0062,0.011
6.8601715042876075,-0.0215,-0.0036999999999999997,-9.7342,0.0169,0.0060999999999999995,0.0107
6.870171754293858,-0.0354,0.013,-9.7204,0.0167,0.0065,0.0109
6.880172004300108,-0.0169,0.0127,-9.7384,0.017499999999999998,0.0069,0.0111
6.890172254306358,-0.0624,0.014799999999999999,-9.725999999999999,0.0189,0.0068,0.0111
6.900172504312608,-0.0406,0.0194,-9.7272,0.018699999999999998,0.0062,0.0111
6.910172754318858,-0.0273,0.009899999999999999,-9.7058,0.0186,0.0058,0.011
6.920173004325108,-0.0229,0.0055,-9.7408,0.0183,0.0065,0.0111
6.930173254331359,-0.0433,0.029500000000000002,-9.7495,0.0193,0.0069,0.0113
6.940173504337609,-0.060099999999999994,0.0336,-9.7429,0.019200000000000002,0.0065,0.0113
6.950173754343859,-0.0326,0.025,-9.7357,0.0186,0.0059,0.0112
6.960174004350109,-0.028999999999999998,0.0066,-9.720099999999999,0.0182,0.006,0.011
6.970174254356359,-0.0363,0.0238,-9.7212,0.0182,0.0067,0.0113
6.980174504362609,-0.0349,0.041800000000000004,-9.74,0.0186,0.0072,0.0115
6.9901747543688595,-0.05739999999999999,0.0494,-9.734,0.018799999999999997,0.006999999999999999,0.0116
7.00017500437511,-0.0382,0.0468,-9.7378,0.017599999999999998,0.0060999999999999995,0.0114
7.01017525438136,-0.0401,0.0103,-9.7208,0.0164,0.0059,0.0113
7.02017550438761,-0.0304,0.0203,-9.7343,0.016,0.0065,0.0115
7.03017575439386,-0.0417,0.0557,-9.7403,0.0161,0.006999999999999999,0.0116
7.04017600440011,-0.0674,0.0474,-9.7392,0.0163,0.0066,0.0115
7.05017625440636,-0.048,0.0302,-9.7217,0.0154,0.0059,0.0114
7.060176504412611,-0.0335,0.018000000000000002,-9.7111,0.014899999999999998,0.006,0.0113
7.070176754418861,-0.037399999999999996,0.0177,-9.7239,0.0143,0.0068,0.0115
7.080177004425111,-0.039599999999999996,0.0361,-9.7469,0.0154,0.006999999999999999,0.0118
7.090177254431361,-0.053,0.049499999999999995,-9.741299999999999,0.016,0.0067,0.0117
7.100177504437611,-0.0409,0.0531,-9.7289,0.0156,0.0060999999999999995,0.0117
7.110177754443861,-0.05159999999999999,0.0355,-9.711500000000001,0.014899999999999998,0.0062,0.0116
7.1201780044501115,-0.051500000000000004,0.014999999999999998,-9.7233,0.0144,0.0065,0.0117
7.130178254456362,-0.0263,0.0519,-9.742099999999999,0.015799999999999998,0.0068,0.0121
7.140178504462612,-0.0739,0.06369999999999999,-9.7391,0.015899999999999997,0.0067,0.0118
7.150178754468862,-0.0426,0.0218,-9.7209,0.015799999999999998,0.0059,0.0116
7.160179004475112,-0.034999999999999996,0.0222,-9.7257,0.015799999999999998,0.006,0.0116
7.170179254481362,-0.0567,0.030600000000000002,-9.7202,0.0156,0.0066,0.0118
7.180179504487612,-0.0449,0.0621,-9.7507,0.0163,0.0067,0.012
7.190179754493863,-0.0669,0.0566,-9.7302,0.0166,0.0065,0.0119
7.200180004500113,-0.045899999999999996,0.0451,-9.7346,0.015899999999999997,0.0059,0.0119
7.210180254506363,-0.0401,0.0372,-9.7195,0.0151,0.0060999999999999995,0.0118
7.220180504512613,-0.041800000000000004,0.0423,-9.7408,0.0152,0.0066,0.0119
7.230180754518863,-0.05910000000000001,0.0523,-9.7461,0.0155,0.0069,0.0124
7.240181004525113,-0.05739999999999999,0.0562,-9.7494,0.015799999999999998,0.0066,0.012199999999999999
7.2501812545313635,-0.0544,0.052700000000000004,-9.735000000000001,0.0156,0.006,0.0121
7.260181504537614,-0.0445,0.0415,-9.7236,0.015300000000000001,0.0060999999999999995,0.012
7.270181754543864,-0.040299999999999996,0.036000000000000004,-9.741900000000001,0.014899999999999998,0.0067,0.0121
7.280182004550114,-0.0608,0.059199999999999996,-9.743699999999999,0.016,0.0069,0.0123
7.290182254556364,-0.0702,0.0577,-9.7265,0.0163,0.0062,0.0119
7.300182504562614,-0.0357,0.0475,-9.7331,0.015899999999999997,0.0056,0.012
7.3101827545688645,-0.0493,0.0241,-9.7273,0.015799999999999998,0.0060999999999999995,0.0116
7.320183004575115,-0.0514,0.052199999999999996,-9.7345,0.015899999999999997,0.0066,0.012199999999999999
7.330183254581365,-0.0737,0.0799,-9.7377,0.0167,0.0067,0.012199999999999999
7.340183504587615,-0.0634,0.0666,-9.7364,0.0157,0.0062,0.012199999999999999
7.350183754593865,-0.0359,0.05159999999999999,-9.7388,0.014799999999999999,0.0059,0.0121
7.360184004600115,-0.049499999999999995,0.0371,-9.735299999999999,0.0142,0.0063,0.0118
7.370184254606365,-0.06269999999999999,0.051199999999999996,-9.7454,0.0144,0.0067,0.0124
7.3801845046126155,-0.0626,0.0882,-9.7363,0.015799999999999998,0.0067,0.0125
7.390184754618866,-0.0684,0.0783,-9.7364,0.0155,0.0062,0.0123
7.400185004625116,-0.0348,0.060099999999999994,-9.7362,0.014799999999999999,0.0059,0.0121
7.410185254631366,-0.0477,0.053200000000000004,-9.7474,0.0144,0.0065,0.0121
7.420185504637616,-0.075,0.061700000000000005,-9.7369,0.014100000000000001,0.0066,0.012199999999999999
7.430185754643866,-0.0572,0.08360000000000001,-9.7516,0.015300000000000001,0.0063999999999999994,0.0123
7.4401860046501165,-0.0749,0.0749,-9.7307,0.0154,0.006,0.012199999999999999
7.450186254656367,-0.0419,0.0594,-9.7366,0.0144,0.0056,0.0121
7.460186504662617,-0.0471,0.039,-9.7286,0.0147,0.0060999999999999995,0.0121
7.470186754668867,-0.0613,0.0725,-9.748,0.015300000000000001,0.0066,0.0125
7.480187004675117,-0.0737,0.10219999999999999,-9.748099999999999,0.015899999999999997,0.0067,0.0126
7.490187254681367,-0.06459999999999999,0.0848,-9.7403,0.0152,0.0062,0.0126
7.500187504687617,-0.056499999999999995,0.059199999999999996,-9.7455,0.0146,0.0057,0.0124
7.510187754693868,-0.0398,0.0616,-9.745,0.014100000000000001,0.0060999999999999995,0.0124
7.520188004700118,-0.0557,0.0883,-9.7645,0.0142,0.0068,0.0127
7.530188254706368,-0.0814,0.0912,-9.743599999999999,0.0151,0.0065,0.0123
7.540188504712618,-0.074,0.0772,-9.725499999999998,0.015300000000000001,0.0060999999999999995,0.0125
7.550188754718868,-0.060899999999999996,0.0649,-9.7197,0.014100000000000001,0.0058,0.012199999999999999
7.560189004725118,-0.0382,0.052899999999999996,-9.744,0.013999999999999999,0.0060999999999999995,0.0121
7.5701892547313685,-0.0582,0.0938,-9.7665,0.0139,0.0063999999999999994,0.0125
7.580189504737619,-0.0895,0.10779999999999999,-9.745800000000001,0.0144,0.0062,0.0126
7.590189754743869,-0.0691,0.09759999999999999,-9.732,0.0135,0.0055,0.0123
7.600190004750119,-0.060599999999999994,0.0772,-9.7442,0.0117,0.0052,0.0125
7.610190254756369,-0.051699999999999996,0.0782,-9.734399999999999,0.0105,0.0057,0.0126
7.620190504762619,-0.045,0.0929,-9.7617,0.0105,0.0062,0.0126
7.630190754768869,-0.0958,0.11410000000000001,-9.7362,0.0107,0.0060999999999999995,0.0127
7.64019100477512,-0.07619999999999999,0.0857,-9.7214,0.009399999999999999,0.0057,0.0124
7.65019125478137,-0.06369999999999999,0.0426,-9.7214,0.0084,0.0053,0.0123
7.66019150478762,-0.0486,0.0661,-9.728499999999999,0.0082,0.0056,0.0123
7.67019175479387,-0.0594,0.0865,-9.7472,0.0085,0.0059,0.0123
7.680192004800121,-0.0916,0.089,-9.7326,0.009600000000000001,0.0056,0.0123
7.690192254806371,-0.0719,0.0789,-9.7442,0.0092,0.0048000000000000004,0.0123
7.700192504812621,-0.0624,0.0923,-9.7371,0.0086,0.0049,0.0124
7.710192754818872,-0.05999999999999999,0.0916,-9.7513,0.0077,0.005399999999999999,0.0124
7.720193004825122,-0.0625,0.10859999999999999,-9.7523,0.0081,0.0056,0.012799999999999999
7.730193254831372,-0.097,0.11019999999999999,-9.750599999999999,0.008,0.0055,0.0127
7.740193504837622,-0.0751,0.1016,-9.740400000000001,0.0066,0.004699999999999999,0.0127
7.750193754843872,-0.0504,0.0683,-9.7366,0.0056,0.0046,0.0123
7.760194004850122,-0.0731,0.0689,-9.733799999999999,0.0062,0.0050999999999999995,0.0124
7.7701942548563725,-0.0634,0.10439999999999999,-9.7638,0.0065,0.0055,0.0126
7.780194504862623,-0.0954,0.10120000000000001,-9.765,0.0071,0.005,0.0124
7.790194754868873,-0.08099999999999999,0.0953,-9.7443,0.0063,0.0041,0.0123
7.800195004875123,-0.0497,0.0742,-9.7527,0.0055,0.0042,0.0121
7.810195254881373,-0.0787,0.08499999999999999,-9.760299999999999,0.0055,0.005,0.0125
7.820195504887623,-0.08009999999999999,0.1416,-9.7598,0.0059,0.0050999999999999995,0.013
7.830195754893873,-0.0843,0.10300000000000001,-9.7525,0.0050999999999999995,0.004399999999999999,0.0125
7.840196004900124,-0.0608,0.0946,-9.756499999999999,0.0043,0.0039,0.012799999999999999
7.850196254906374,-0.0665,0.0772,-9.748099999999999,0.0036,0.004399999999999999,0.0123
7.860196504912624,-0.07039999999999999,0.07680000000000001,-9.7528,0.0033,0.0045000000000000005,0.0127
7.870196754918874,-0.08270000000000001,0.1006,-9.766399999999999,0.0046,0.0049,0.0127
7.880197004925124,-0.0832,0.1023,-9.753599999999999,0.004699999999999999,0.0045000000000000005,0.0126
7.890197254931374,-0.0605,0.0828,-9.753599999999999,0.0039,0.0039,0.0123
7.9001975049376245,-0.0776,0.0738,-9.766,0.0034,0.004,0.012199999999999999
7.910197754943875,-0.083,0.0945,-9.7602,0.003,0.0042,0.0126
7.920198004950125,-0.07680000000000001,0.1033,-9.7686,0.0041,0.0042,0.0124
7.930198254956375,-0.0906,0.0846,-9.7325,0.004399999999999999,0.0036999999999999997,0.0123
7.940198504962625,-0.0783,0.0562,-9.742,0.004699999999999999,0.0036,0.0124
7.950198754968875,-0.0588,0.0759,-9.7689,0.0038,0.0039,0.0124
7.9601990049751254,-0.0787,0.09309999999999999,-9.7773,0.004,0.0041,0.0126
7.970199254981376,-0.0898,0.11349999999999999,-9.783,0.005,0.004,0.0127
7.980199504987626,-0.0952,0.1213,-9.7477,0.0039,0.0034,0.0124
7.990199754993876,-0.07429999999999999,0.0675,-9.7584,0.0015,0.0031999999999999997,0.012
8.000200005000126,-0.053,0.0649,-9.7499,0.0013,0.0036,0.012199999999999999
8.010200255006376,-0.0684,0.10439999999999999,-9.7773,0.0015999999999999999,0.0041,0.0124
8.020200505012626,-0.1065,0.11549999999999999,-9.7715,0.0023,0.004,0.0121
8.030200755018877,-0.0921,0.0705,-9.7522,0.0023,0.0031999999999999997,0.012
8.040201005025127,-0.0714,0.062,-9.7569,0.0023,0.0029,0.0121
8.050201255031377,-0.0589,0.0779,-9.7851,0.002,0.0033,0.012
8.060201505037627,-0.0692,0.108,-9.7958,0.0028,0.0036,0.0123
8.070201755043877,-0.1131,0.1136,-9.7678,0.0039,0.003,0.012
8.080202005050127,-0.0937,0.07780000000000001,-9.7441,0.0026999999999999997,0.0023,0.012
8.090202255056377,-0.0729,0.0631,-9.7469,0.0024000000000000002,0.0024000000000000002,0.012
8.100202505062628,-0.0619,0.0786,-9.7715,0.0026999999999999997,0.0031999999999999997,0.0119
8.110202755068878,-0.06409999999999999,0.1036,-9.7965,0.0026999999999999997,0.0036999999999999997,0.012
8.120203005075128,-0.10200000000000001,0.08,-9.798399999999999,0.0025,0.0036999999999999997,0.0114
8.130203255081378,-0.094,0.076,-9.784099999999999,0.0010999999999999998,0.003,0.0116
8.140203505087628,-0.0708,0.0786,-9.7857,-9.999999999999999e-05,0.003,0.0114
8.150203755093878,-0.07529999999999999,0.0702,-9.7944,-0.0015999999999999999,0.0034,0.0111
8.160204005100129,-0.0733,0.107,-9.8026,-0.0019,0.0034999999999999996,0.0118
8.170204255106379,-0.1115,0.1134,-9.776,-0.0017,0.0031,0.0112
8.180204505112629,-0.077,0.0964,-9.7791,-0.0031,0.0021,0.0114
8.190204755118879,-0.0672,0.0671,-9.780899999999999,-0.0034,0.0024000000000000002,0.0109
8.20020500512513,-0.0903,0.0777,-9.796000000000001,-0.0043,0.003,0.0113
8.21020525513138,-0.0781,0.10579999999999999,-9.8074,-0.0045000000000000005,0.0031,0.0112
8.22020550513763,-0.0944,0.0871,-9.803,-0.0052,0.0029,0.010799999999999999
8.23020575514388,-0.0737,0.0672,-9.7868,-0.0059,0.0024000000000000002,0.0107
8.24020600515013,-0.0624,0.0737,-9.7976,-0.0065,0.0026999999999999997,0.0104
8.25020625515638,-0.1051,0.0945,-9.7729,-0.006999999999999999,0.0034,0.010799999999999999
8.26020650516263,-0.0804,0.1255,-9.786499999999998,-0.0067,0.0034,0.0107
8.27020675516888,-0.0967,0.08789999999999999,-9.7827,-0.007499999999999999,0.0031,0.0105
8.28020700517513,-0.0799,0.0878,-9.7785,-0.0085,0.0026,0.0107
8.29020725518138,-0.0582,0.0716,-9.7979,-0.010199999999999999,0.0029,0.010199999999999999
8.30020750518763,-0.09219999999999999,0.0783,-9.7986,-0.0103,0.0029,0.0107
8.31020775519388,-0.0997,0.10020000000000001,-9.799900000000001,-0.0098,0.003,0.0103
8.320208005200131,-0.09899999999999999,0.0755,-9.788499999999999,-0.0105,0.0023,0.0103
8.330208255206381,-0.0799,0.0568,-9.7749,-0.0113,0.002,0.0098
8.340208505212631,-0.0745,0.06849999999999999,-9.7761,-0.0123,0.0021,0.0098
8.350208755218882,-0.0744,0.0919,-9.7842,-0.0126,0.0026,0.009899999999999999
8.360209005225132,-0.1003,0.0866,-9.8026,-0.0126,0.0029,0.0098
8.370209255231382,-0.0893,0.0833,-9.796199999999999,-0.0139,0.0025,0.009899999999999999
8.380209505237632,-0.0895,0.0693,-9.7725,-0.0144,0.002,0.0097
8.390209755243882,-0.0563,0.0558,-9.7883,-0.0155,0.0024000000000000002,0.009600000000000001
8.400210005250132,-0.0697,0.064,-9.8178,-0.014499999999999999,0.0031,0.0098
8.410210255256382,-0.12049999999999998,0.0783,-9.8081,-0.0132,0.0031,0.0095
8.420210505262633,-0.1051,0.06570000000000001,-9.789499999999999,-0.014100000000000001,0.0021,0.009399999999999999
8.430210755268883,-0.0767,0.0416,-9.7692,-0.0144,0.0017,0.009000000000000001
8.440211005275133,-0.0658,0.0439,-9.8012,-0.0146,0.0021999999999999997,0.0092
8.450211255281383,-0.0716,0.0829,-9.8144,-0.0144,0.0024000000000000002,0.0093
8.460211505287633,-0.11069999999999999,0.06999999999999999,-9.7967,-0.013699999999999999,0.0021,0.008799999999999999
8.470211755293883,-0.0947,0.0493,-9.7944,-0.0139,0.0014,0.009000000000000001
8.480212005300134,-0.0839,0.032299999999999995,-9.773299999999999,-0.014499999999999999,0.0013,0.0087
8.490212255306384,-0.0783,0.0445,-9.8111,-0.0142,0.002,0.008799999999999999
8.500212505312634,-0.07150000000000001,0.0981,-9.8251,-0.0138,0.0025,0.0091
8.510212755318884,-0.1045,0.0907,-9.8163,-0.013999999999999999,0.0021999999999999997,0.008799999999999999
8.520213005325134,-0.0986,0.0613,-9.8075,-0.014899999999999998,0.0015999999999999999,0.0087
8.530213255331384,-0.0893,0.0585,-9.7768,-0.015899999999999997,0.0017,0.0086
8.540213505337634,-0.0653,0.046299999999999994,-9.821,-0.017,0.0026,0.0085
8.550213755343885,-0.08209999999999999,0.053700000000000005,-9.8412,-0.0163,0.0026999999999999997,0.0087
8.560214005350135,-0.1186,0.0754,-9.8122,-0.0162,0.0021,0.0083
8.570214255356385,-0.0986,0.0504,-9.8089,-0.0171,0.0010999999999999998,0.0081
8.580214505362635,-0.0826,0.034699999999999995,-9.7878,-0.0178,0.001,0.007899999999999999
8.590214755368885,-0.0901,0.029799999999999997,-9.8036,-0.0178,0.0017,0.0081
8.600215005375135,-0.0906,0.073,-9.8183,-0.0165,0.0019,0.0085
8.610215255381386,-0.1082,0.0745,-9.8089,-0.0167,0.0015,0.0082
8.620215505387636,-0.0822,0.0301,-9.81,-0.017,0.0007999999999999999,0.0082
8.630215755393886,-0.0808,0.0294,-9.7916,-0.0167,0.001,0.007899999999999999
8.640216005400136,-0.0912,0.0134,-9.797699999999999,-0.0168,0.0015999999999999999,0.008
8.650216255406386,-0.07339999999999999,0.0413,-9.8163,-0.014899999999999998,0.0019,0.0082
8.660216505412636,-0.11280000000000001,0.0223,-9.8096,-0.0135,0.002,0.007499999999999999
8.670216755418886,-0.0899,0.017499999999999998,-9.8172,-0.0136,0.0013,0.0077
8.680217005425137,-0.0819,0.0167,-9.8001,-0.0127,0.0015,0.0073
8.690217255431387,-0.0843,0.0341,-9.8378,-0.0124,0.002,0.007499999999999999
8.700217505437637,-0.10629999999999999,0.044,-9.825399999999998,-0.0115,0.0021,0.0073999999999999995
8.710217755443887,-0.1149,0.0265,-9.819899999999999,-0.0112,0.0015,0.007499999999999999
8.720218005450137,-0.0899,0.0034999999999999996,-9.8059,-0.0109,0.0006000000000000001,0.0071
8.730218255456387,-0.0666,0.0167,-9.8066,-0.0098,0.00039999999999999996,0.0071
8.740218505462638,-0.0936,0.0205,-9.8205,-0.0097,0.0012000000000000001,0.0072
8.750218755468888,-0.10300000000000001,0.038900000000000004,-9.827399999999999,-0.0081,0.0010999999999999998,0.0072
8.760219005475138,-0.1136,0.025300000000000003,-9.8192,-0.0085,0.0009,0.0069
8.770219255481388,-0.08689999999999999,0.018799999999999997,-9.7955,-0.0086,-0.0,0.0068
8.780219505487638,-0.0503,0.0062,-9.8216,-0.007899999999999999,0.0007,0.0065
8.790219755493888,-0.09849999999999999,0.0292,-9.815,-0.0073,0.0015,0.0069
8.800220005500138,-0.1072,0.0262,-9.8273,-0.0065,0.0019,0.0066
8.810220255506389,-0.10039999999999999,0.029500000000000002,-9.8167,-0.0060999999999999995,0.0012000000000000001,0.0067
8.820220505512639,-0.1,0.012,-9.8112,-0.0063999999999999994,0.0009,0.0062
8.830220755518889,-0.0832,0.01,-9.822899999999999,-0.006,0.0009,0.0063
8.84022100552514,-0.083,0.0407,-9.825000000000001,-0.005,0.0012000000000000001,0.0065
8.85022125553139,-0.1132,0.04,-9.8336,-0.0041,0.0010999999999999998,0.0063
8.86022150553764,-0.1067,0.0275,-9.8109,-0.004399999999999999,0.0005,0.0063
8.87022175554389,-0.0921,0.0113,-9.8132,-0.0041,9.999999999999999e-05,0.006
8.88022200555014,-0.0668,0.0214,-9.8306,-0.0038,0.00019999999999999998,0.006
8.89022225555639,-0.0904,0.045399999999999996,-9.8246,-0.0031,0.0007,0.0062
8.90022250556264,-0.11,0.029999999999999995,-9.8479,-0.0019,0.0007999999999999999,0.0059
8.91022275556889,-0.1051,0.037599999999999995,-9.8157,-0.0019,9.999999999999999e-05,0.0059
8.92022300557514,-0.084,0.0082,-9.8124,-0.002,9.999999999999999e-05,0.0055
8.93022325558139,-0.0661,0.0182,-9.833,-0.0021,0.00039999999999999996,0.0056
8.94022350558764,-0.0952,0.0409,-9.8295,-0.0015,0.0015,0.0057
8.95022375559389,-0.11349999999999999,0.0411,-9.8458,-0.0021,0.0013,0.0056
8.960224005600141,-0.12340000000000001,0.026099999999999998,-9.8147,-0.0028,0.00019999999999999998,0.005399999999999999
8.970224255606391,-0.0741,0.0010999999999999998,-9.8238,-0.0038,0.0,0.0050999999999999995
8.980224505612641,-0.0903,0.0234,-9.814,-0.0043,9.999999999999999e-05,0.0053
8.990224755618891,-0.09259999999999999,0.050600000000000006,-9.821399999999999,-0.0039,0.00030000000000000003,0.0053
9.000225005625142,-0.1181,0.0531,-9.815,-0.0038,-9.999999999999999e-05,0.0050999999999999995
9.010225255631392,-0.0896,0.048999999999999995,-9.8189,-0.0052,-0.0005,0.0050999999999999995
9.020225505637642,-0.1041,0.0117,-9.8082,-0.0066,-0.00030000000000000003,0.004699999999999999
9.030225755643892,-0.0679,0.019799999999999998,-9.8356,-0.0071,-9.999999999999999e-05,0.004699999999999999
9.040226005650142,-0.0867,0.0387,-9.84,-0.0063999999999999994,0.0005,0.0048000000000000004
9.050226255656392,-0.12290000000000001,0.0358,-9.8323,-0.005399999999999999,0.00019999999999999998,0.0046
9.060226505662643,-0.0945,0.0333,-9.8231,-0.0058,-0.00039999999999999996,0.004399999999999999
9.070226755668893,-0.1072,0.0276,-9.802299999999999,-0.0065,-0.00039999999999999996,0.0043
9.080227005675143,-0.08679999999999999,0.0305,-9.810099999999998,-0.006999999999999999,-0.00019999999999999998,0.0043
9.090227255681393,-0.08,0.045899999999999996,-9.8303,-0.0063,9.999999999999999e-05,0.004399999999999999
9.100227505687643,-0.1337,0.035199999999999995,-9.8314,-0.0062,-0.00030000000000000003,0.0041
9.110227755693893,-0.1036,0.016,-9.8347,-0.0071,-0.001,0.0042
9.120228005700143,-0.08589999999999999,0.0279,-9.8193,-0.0072,-0.0012000000000000001,0.004
9.130228255706394,-0.0871,0.0206,-9.8368,-0.007899999999999999,-0.0007,0.0036999999999999997
9.140228505712644,-0.0912,0.0337,-9.8377,-0.0065,-0.00030000000000000003,0.0041
9.150228755718894,-0.11919999999999999,0.030899999999999997,-9.8238,-0.0058,-0.0005,0.0036
9.160229005725144,-0.09259999999999999,0.022699999999999998,-9.8201,-0.006,-0.0015,0.0036
9.170229255731394,-0.0892,0.0134,-9.8202,-0.006,-0.0013,0.0031999999999999997
9.180229505737644,-0.0928,0.034,-9.8208,-0.0058,-0.0007999999999999999,0.0036
9.190229755743895,-0.0903,0.058600000000000006,-9.846499999999999,-0.0059,-0.0005,0.0034999999999999996
9.200230005750145,-0.1255,0.025300000000000003,-9.8173,-0.0057,-0.0012000000000000001,0.0031999999999999997
9.210230255756395,-0.0944,0.0333,-9.842099999999999,-0.0063,-0.0015999999999999999,0.0034
9.220230505762645,-0.0944,0.0235,-9.828199999999999,-0.0063999999999999994,-0.0015999999999999999,0.003
9.230230755768895,-0.09759999999999999,0.0373,-9.8324,-0.0060999999999999995,-0.0014,0.0031999999999999997
9.240231005775145,-0.0835,0.0421,-9.8431,-0.005399999999999999,-0.001,0.0029
9.250231255781395,-0.1232,0.0288,-9.8242,-0.0055,-0.0013,0.003
9.260231505787646,-0.10640000000000001,0.0308,-9.8234,-0.0060999999999999995,-0.0018,0.0029
9.270231755793896,-0.0765,0.0317,-9.8287,-0.0063,-0.0018,0.0025
9.280232005800146,-0.0909,0.0276,-9.8507,-0.0068,-0.001,0.0028
9.290232255806396,-0.1088,0.0496,-9.8563,-0.0063999999999999994,-0.0012000000000000001,0.0028
9.300232505812646,-0.1227,0.040299999999999996,-9.826600000000001,-0.0069,-0.0018,0.0025
9.310232755818896,-0.0756,0.0189,-9.836699999999999,-0.0073999999999999995,-0.0025,0.0023
9.320233005825147,-0.08850000000000001,0.0193,-9.8174,-0.0069,-0.0021,0.0023
9.330233255831397,-0.10020000000000001,0.0333,-9.8427,-0.0071,-0.0015,0.0025
9.340233505837647,-0.10529999999999999,0.0619,-9.8535,-0.006999999999999999,-0.0017,0.0024000000000000002
9.350233755843897,-0.109,0.052199999999999996,-9.8316,-0.0077,-0.0019,0.0023
9.360234005850147,-0.0837,0.039,-9.831299999999999,-0.0087,-0.0025,0.0021999999999999997
9.370234255856397,-0.08059999999999999,0.0179,-9.8432,-0.009000000000000001,-0.0021,0.0018
9.380234505862648,-0.1188,0.0174,-9.8361,-0.0097,-0.0015999999999999999,0.0021
9.390234755868898,-0.0844,0.040299999999999996,-9.854899999999999,-0.0082,-0.0018,0.0019
9.400235005875148,-0.11999999999999998,0.029599999999999998,-9.8288,-0.008,-0.0021,0.0015999999999999999
9.410235255881398,-0.0862,0.0106,-9.8264,-0.0086,-0.0026999999999999997,0.0015
9.420235505887648,-0.07680000000000001,-0.0014,-9.8461,-0.0082,-0.0023,0.0012000000000000001
9.430235755893898,-0.1139,0.0238,-9.8399,-0.0077,-0.0018,0.0015999999999999999
9.440236005900148,-0.10579999999999999,0.055099999999999996,-9.850499999999998,-0.0073,-0.002,0.0017
9.450236255906399,-0.1164,0.032299999999999995,-9.839599999999999,-0.0069,-0.0023,0.0015
9.460236505912649,-0.0751,0.0055,-9.8598,-0.007499999999999999,-0.0025,0.0010999999999999998
9.470236755918899,-0.0795,0.012899999999999998,-9.8543,-0.0072,-0.0021999999999999997,0.0012000000000000001
9.480237005925149,-0.1021,0.0174,-9.8492,-0.0065,-0.002,0.0010999999999999998
9.4902372559314,-0.0993,0.0424,-9.858,-0.004699999999999999,-0.002,0.001
9.50023750593765,-0.1217,0.014499999999999999,-9.8428,-0.0042,-0.0021,0.0007
9.5102377559439,-0.08009999999999999,0.0162,-9.850399999999999,-0.004399999999999999,-0.0024000000000000002,0.0007
9.52023800595015,-0.0888,0.0228,-9.843499999999999,-0.0041,-0.0026,0.0005
9.5302382559564,-0.0791,0.0361,-9.843300000000001,-0.004399999999999999,-0.0023,0.0006000000000000001
9.54023850596265,-0.1077,0.0369,-9.8601,-0.0036,-0.002,0.00039999999999999996
9.5502387559689,-0.1098,0.0375,-9.847,-0.0038,-0.0023,0.0007
9.56023900597515,-0.10120000000000001,0.0246,-9.847999999999999,-0.0045000000000000005,-0.0029,0.00019999999999999998
9.5702392559814,-0.08729999999999999,0.0055,-9.8472,-0.0043,-0.0026999999999999997,9.999999999999999e-05
9.58023950598765,-0.0924,0.0272,-9.8372,-0.0036,-0.0021,0.00039999999999999996
9.5902397559939,-0.0899,0.0377,-9.859399999999999,-0.0021999999999999997,-0.0017,-9.999999999999999e-05
9.600240006000151,-0.1248,0.0219,-9.8272,-0.0019,-0.002,0.00019999999999999998
9.610240256006401,-0.08159999999999999,0.0067,-9.8442,-0.002,-0.0023,-0.00030000000000000003
9.620240506012651,-0.0871,0.0243,-9.8477,-0.002,-0.0024000000000000002,-0.00039999999999999996
9.630240756018901,-0.1011,0.033100000000000004,-9.846499999999999,-0.0019,-0.002,-0.00039999999999999996
9.640241006025152,-0.089,0.0386,-9.856399999999999,-0.0005,-0.0019,-0.0005
9.650241256031402,-0.1167,0.0328,-9.8373,-0.00039999999999999996,-0.0021,-0.0005
9.660241506037652,-0.0897,0.0286,-9.8429,-0.0009,-0.0026999999999999997,-0.0007
9.670241756043902,-0.0693,0.0196,-9.8627,-0.0007,-0.0026,-0.0009
9.680242006050152,-0.09849999999999999,0.0404,-9.848999999999998,-0.0005,-0.0021,-0.0005
9.690242256056402,-0.11460000000000001,0.0577,-9.843,0.00039999999999999996,-0.002,-0.0009
9.700242506062652,-0.1072,0.0458,-9.841099999999999,-0.0007,-0.0025,-0.0007999999999999999
9.710242756068903,-0.083,0.0164,-9.844999999999999,-0.0010999999999999998,-0.0026999999999999997,-0.0012000000000000001
9.720243006075153,-0.0851,0.0407,-9.834900000000001,-0.0014,-0.0025,-0.0012000000000000001
9.730243256081403,-0.0754,0.034499999999999996,-9.8543,-0.0015999999999999999,-0.0018,-0.0013
9.740243506087653,-0.11839999999999999,0.052700000000000004,-9.8678,-0.00039999999999999996,-0.0015,-0.0012000000000000001
9.750243756093903,-0.1171,0.055900000000000005,-9.8357,-0.0010999999999999998,-0.0018,-0.0014
9.760244006100153,-0.07919999999999999,0.0365,-9.8525,-0.0026,-0.0025,-0.0015999999999999999
9.770244256106404,-0.0948,0.0196,-9.8558,-0.0026999999999999997,-0.0021,-0.0017
9.780244506112654,-0.0933,0.048,-9.8414,-0.0021999999999999997,-0.0018,-0.0013
9.790244756118904,-0.09659999999999999,0.073,-9.8608,-0.0015999999999999999,-0.0019,-0.0015
9.800245006125154,-0.11,0.05689999999999999,-9.8263,-0.0025,-0.0024000000000000002,-0.0017
9.810245256131404,-0.08689999999999999,0.0439,-9.8458,-0.0038,-0.0026999999999999997,-0.0019
9.820245506137654,-0.089,0.049499999999999995,-9.838,-0.0048000000000000004,-0.0025,-0.0019
9.830245756143905,-0.0867,0.048799999999999996,-9.8384,-0.0052,-0.002,-0.0019
9.840246006150155,-0.0965,0.053399999999999996,-9.850200000000001,-0.0041,-0.0015999999999999999,-0.0019
9.850246256156405,-0.10740000000000001,0.0471,-9.8392,-0.0043,-0.0018,-0.002
9.860246506162655,-0.0934,0.0346,-9.836,-0.0049,-0.0023,-0.0021999999999999997
9.870246756168905,-0.0824,0.0509,-9.843499999999999,-0.0059,-0.0021999999999999997,-0.0024000000000000002
9.880247006175155,-0.0833,0.062200000000000005,-9.8506,-0.0063999999999999994,-0.0017,-0.0021999999999999997
9.890247256181405,-0.1116,0.0633,-9.8497,-0.0060999999999999995,-0.0015999999999999999,-0.0023
9.900247506187656,-0.1137,0.053700000000000005,-9.8301,-0.0067,-0.0019,-0.0023
9.910247756193906,-0.092,0.0325,-9.8305,-0.0076,-0.0023,-0.0026
9.920248006200156,-0.0628,0.025099999999999997,-9.864,-0.007499999999999999,-0.0019,-0.0026
9.930248256206406,-0.0987,0.0536,-9.8467,-0.006999999999999999,-0.0015,-0.0024000000000000002
9.940248506212656,-0.1093,0.0486,-9.853399999999999,-0.0063999999999999994,-0.0015999999999999999,-0.0026999999999999997
9.950248756218906,-0.11750000000000001,0.034499999999999996,-9.826600000000001,-0.0069,-0.0024000000000000002,-0.0026999999999999997
9.960249006225157,-0.08099999999999999,0.0353,-9.843399999999999,-0.0076,-0.0025,-0.003
9.970249256231407,-0.0862,0.0373,-9.8387,-0.007499999999999999,-0.002,-0.003
9.980249506237657,-0.0802,0.0456,-9.858699999999999,-0.0071,-0.0015999999999999999,-0.0029
9.990249756243907,-0.1,0.0683,-9.8472,-0.0062,-0.0015999999999999999,-0.003
10.000250006250157,-0.12459999999999999,0.034499999999999996,-9.8242,-0.0063999999999999994,-0.0017,-0.0031
10.010250256256407,-0.07529999999999999,0.0237,-9.8208,-0.0068,-0.0021,-0.0031
10.020250506262657,-0.0779,0.04,-9.8558,-0.0067,-0.0014,-0.0034
10.030250756268908,-0.105,0.0491,-9.844899999999999,-0.0067,-0.0010999999999999998,-0.0029
10.040251006275158,-0.1057,0.0702,-9.8527,-0.0060999999999999995,-0.0015999999999999999,-0.0031999999999999997
10.050251256281408,-0.11379999999999998,0.0421,-9.8143,-0.0071,-0.002,-0.0034999999999999996
10.060251506287658,-0.06620000000000001,0.0235,-9.839699999999999,-0.0077,-0.0021999999999999997,-0.0036
10.070251756293908,-0.092,0.031,-9.8472,-0.0077,-0.0015,-0.0038
10.080252006300158,-0.0974,0.046299999999999994,-9.828899999999999,-0.0073999999999999995,-0.0013,-0.0034
10.090252256306409,-0.09759999999999999,0.0503,-9.8442,-0.0063,-0.0012000000000000001,-0.0036999999999999997
10.100252506312659,-0.11399999999999999,0.0391,-9.8215,-0.0068,-0.0014,-0.0034999999999999996
10.110252756318909,-0.0751,0.039599999999999996,-9.8399,-0.0071,-0.0017,-0.0038
10.120253006325159,-0.0829,0.026899999999999997,-9.845099999999999,-0.0066,-0.0014,-0.0038
10.13025325633141,-0.08,0.04,-9.8543,-0.0056,-0.0010999999999999998,-0.0036
10.14025350633766,-0.10959999999999999,0.0438,-9.8417,-0.0043,-0.0009,-0.0041
10.15025375634391,-0.1115,0.0254,-9.8264,-0.0041,-0.0012000000000000001,-0.0038
10.16025400635016,-0.0839,0.0235,-9.8353,-0.0036,-0.0014,-0.0042
10.17025425635641,-0.0829,0.022699999999999998,-9.841,-0.0031999999999999997,-0.0012000000000000001,-0.004399999999999999
10.18025450636266,-0.0812,0.0413,-9.828899999999999,-0.003,-0.001,-0.0039
10.19025475636891,-0.11069999999999999,0.0584,-9.8484,-0.0021,-0.0007,-0.004399999999999999
10.20025500637516,-0.1154,0.051199999999999996,-9.817499999999999,-0.003,-0.0013,-0.0042
10.21025525638141,-0.075,0.0236,-9.8294,-0.0034999999999999996,-0.0018,-0.0045000000000000005
10.22025550638766,-0.0847,0.031,-9.8209,-0.003,-0.0015999999999999999,-0.0045000000000000005
10.23025575639391,-0.0727,0.0491,-9.8384,-0.0021999999999999997,-0.0007999999999999999,-0.004399999999999999
10.24025600640016,-0.10809999999999999,0.061399999999999996,-9.840599999999998,-0.0015999999999999999,-0.0005,-0.004399999999999999
10.250256256406411,-0.0991,0.0363,-9.818200000000001,-0.0021,-0.0007999999999999999,-0.0046
10.260256506412661,-0.087,0.0243,-9.821,-0.0023,-0.0012000000000000001,-0.0046
10.270256756418911,-0.08729999999999999,0.041,-9.8122,-0.0019,-0.0007999999999999999,-0.004699999999999999
10.280257006425161,-0.08499999999999999,0.0312,-9.8372,-0.0017,-0.00030000000000000003,-0.0048000000000000004
10.290257256431412,-0.0904,0.062299999999999994,-9.8402,-0.0005,-0.00039999999999999996,-0.004699999999999999
10.300257506437662,-0.11199999999999999,0.0478,-9.8028,-0.0007999999999999999,-0.0007,-0.0050999999999999995
10.310257756443912,-0.08360000000000001,0.0464,-9.8257,-0.0012000000000000001,-0.0013,-0.0049
10.320258006450162,-0.08,0.0301,-9.811499999999999,-0.0015,-0.0009,-0.0053
10.330258256456412,-0.0844,0.0406,-9.8374,-0.0013,-0.00039999999999999996,-0.0046
10.340258506462662,-0.1016,0.075,-9.8431,-0.0009,-0.00019999999999999998,-0.0050999999999999995
10.350258756468913,-0.1134,0.0588,-9.8376,-0.0021,-0.0006000000000000001,-0.004699999999999999
10.360259006475163,-0.0759,0.0277,-9.8222,-0.0024000000000000002,-0.0010999999999999998,-0.005399999999999999
10.370259256481413,-0.0798,0.0268,-9.8207,-0.0024000000000000002,-0.001,-0.005399999999999999
10.380259506487663,-0.08729999999999999,0.040299999999999996,-9.8149,-0.0018,-0.00030000000000000003,-0.0050999999999999995
10.390259756493913,-0.1013,0.061700000000000005,-9.8361,-0.0007999999999999999,0.00019999999999999998,-0.0053
10.400260006500163,-0.1085,0.050100000000000006,-9.812999999999999,-0.0012000000000000001,-0.00030000000000000003,-0.0053
10.410260256506414,-0.0638,0.0433,-9.8212,-0.0015,-0.0007999999999999999,-0.0055
10.420260506512664,-0.0929,0.043399999999999994,-9.8222,-0.0014,-0.00039999999999999996,-0.0056
10.430260756518914,-0.0937,0.05,-9.8154,-0.0015,0.0,-0.0050999999999999995
10.440261006525164,-0.084,0.0702,-9.853299999999999,-0.0007,0.00030000000000000003,-0.005399999999999999
10.450261256531414,-0.11,0.057999999999999996,-9.8099,-0.0007,-0.00019999999999999998,-0.0055
10.460261506537664,-0.0776,0.0473,-9.802,-0.0013,-0.0007,-0.0055
10.470261756543914,-0.08940000000000001,0.0312,-9.8135,-0.0007999999999999999,-9.999999999999999e-05,-0.0057
10.480262006550165,-0.0797,0.0556,-9.8288,-0.0014,0.0005,-0.0053
10.490262256556415,-0.0972,0.0814,-9.8531,-0.0009,0.0005,-0.0055
10.500262506562665,-0.11009999999999999,0.051000000000000004,-9.804699999999999,-0.0010999999999999998,-0.0,-0.0058
10.510262756568915,-0.0718,0.0373,-9.812999999999999,-0.0014,-0.00030000000000000003,-0.0056
10.520263006575165,-0.0865,0.0315,-9.821100000000001,-0.0018,0.00030000000000000003,-0.0059
10.530263256581415,-0.0777,0.0742,-9.8127,-0.0015,0.00039999999999999996,-0.005399999999999999
10.540263506587666,-0.0977,0.06899999999999999,-9.827399999999999,-0.0009,0.0007999999999999999,-0.0058
10.550263756593916,-0.1119,0.059000000000000004,-9.8049,-0.0013,0.00019999999999999998,-0.0057
10.560264006600166,-0.0854,0.0467,-9.8053,-0.0018,-0.00019999999999999998,-0.0056
10.570264256606416,-0.07730000000000001,0.043,-9.8104,-0.0007999999999999999,0.00019999999999999998,-0.0058
10.580264506612666,-0.0819,0.062299999999999994,-9.8163,-0.0007999999999999999,0.0007,-0.005399999999999999
10.590264756618916,-0.1006,0.061700000000000005,-9.8169,-0.00019999999999999998,0.0009,-0.0057
10.600265006625166,-0.0959,0.0693,-9.806099999999999,9.999999999999999e-05,0.0006000000000000001,-0.0055
10.610265256631417,-0.0824,0.059199999999999996,-9.8028,0.0,0.00030000000000000003,-0.0059
10.620265506637667,-0.0914,0.0349,-9.8179,-0.0005,0.00039999999999999996,-0.0058
10.630265756643917,-0.0809,0.0626,-9.8148,0.00019999999999999998,0.0007,-0.0057
10.640266006650167,-0.10300000000000001,0.0961,-9.8034,0.0006000000000000001,0.0007999999999999999,-0.0057
10.650266256656417,-0.10219999999999999,0.0563,-9.7842,-0.00019999999999999998,0.0006000000000000001,-0.0059
10.660266506662667,-0.0733,0.0498,-9.799299999999999,-0.0006000000000000001,0.00019999999999999998,-0.0057
10.670266756668918,-0.09309999999999999,0.0452,-9.8037,-0.0007,0.0006000000000000001,-0.0057
10.680267006675168,-0.08639999999999999,0.0837,-9.7872,-0.0009,0.0007,-0.0053
10.690267256681418,-0.08940000000000001,0.0863,-9.815,-0.00030000000000000003,0.001,-0.0057
10.700267506687668,-0.10269999999999999,0.0589,-9.8009,-0.0012000000000000001,0.0007,-0.0055
10.710267756693918,-0.0839,0.043,-9.8068,-0.0017,0.00030000000000000003,-0.0058
10.720268006700168,-0.10189999999999999,0.043699999999999996,-9.7791,-0.0010999999999999998,0.00030000000000000003,-0.0057
10.730268256706418,-0.0678,0.0611,-9.8107,-0.0007,0.001,-0.0057
10.740268506712669,-0.10640000000000001,0.0607,-9.812,0.0006000000000000001,0.0015,-0.0056
10.750268756718919,-0.10759999999999999,0.0558,-9.7926,0.0009,0.0010999999999999998,-0.0057
10.760269006725169,-0.0877,0.0504,-9.7933,9.999999999999999e-05,0.00019999999999999998,-0.0057
10.770269256731419,-0.0785,0.043399999999999994,-9.7812,0.0007,0.00019999999999999998,-0.0059
10.78026950673767,-0.0969,0.055,-9.7889,0.0018,0.0007999999999999999,-0.0053
10.79026975674392,-0.0999,0.08789999999999999,-9.7942,0.0038,0.0007,-0.0053
10.80027000675017,-0.10239999999999999,0.0777,-9.772400000000001,0.0038,9.999999999999999e-05,-0.0055
10.81027025675642,-0.0774,0.0567,-9.7735,0.0041,-0.00030000000000000003,-0.005399999999999999
10.82027050676267,-0.0832,0.0545,-9.7831,0.0043,0.0005,-0.0056
10.83027075676892,-0.0741,0.0693,-9.8064,0.004,0.0013,-0.0052
10.84027100677517,-0.10169999999999998,0.0633,-9.814499999999999,0.0050999999999999995,0.0015999999999999999,-0.0056
10.85027125678142,-0.1104,0.0503,-9.7914,0.0049,0.0007999999999999999,-0.0053
10.86027150678767,-0.0822,0.048999999999999995,-9.7864,0.0055,0.00019999999999999998,-0.0056
10.87027175679392,-0.08209999999999999,0.062200000000000005,-9.791,0.0062,0.00039999999999999996,-0.0055
10.88027200680017,-0.0924,0.0891,-9.7801,0.0063999999999999994,0.001,-0.0050999999999999995
10.890272256806421,-0.0986,0.0958,-9.7884,0.0073,0.001,-0.0050999999999999995
10.900272506812671,-0.10909999999999999,0.075,-9.7813,0.0067,0.0005,-0.0052
10.910272756818921,-0.0915,0.0603,-9.8039,0.0055,0.0,-0.0053
10.920273006825171,-0.0817,0.055099999999999996,-9.7932,0.006,0.00019999999999999998,-0.0052
10.930273256831422,-0.0731,0.0663,-9.8003,0.0062,0.0006000000000000001,-0.005
10.940273506837672,-0.0998,0.0941,-9.7964,0.007899999999999999,0.0009,-0.0049
10.950273756843922,-0.11199999999999999,0.10139999999999999,-9.769799999999998,0.007499999999999999,0.0007,-0.0049
10.960274006850172,-0.07339999999999999,0.0781,-9.7867,0.0067,0.00030000000000000003,-0.005
10.970274256856422,-0.0933,0.0727,-9.7731,0.0065,0.0006000000000000001,-0.0052
10.980274506862672,-0.0788,0.0733,-9.791,0.0058,0.0010999999999999998,-0.004699999999999999
10.990274756868923,-0.0955,0.1152,-9.7991,0.0069,0.0010999999999999998,-0.004699999999999999
11.000275006875173,-0.11939999999999999,0.0857,-9.767000000000001,0.0056,0.0006000000000000001,-0.0049
11.010275256881423,-0.07150000000000001,0.0658,-9.7812,0.0053,0.0,-0.0048000000000000004
11.020275506887673,-0.0787,0.0481,-9.8,0.0060999999999999995,0.0006000000000000001,-0.0050999999999999995
11.030275756893923,-0.09899999999999999,0.0835,-9.776,0.006999999999999999,0.001,-0.004399999999999999
11.040276006900173,-0.1104,0.0945,-9.771799999999999,0.008,0.0007999999999999999,-0.0046
11.050276256906423,-0.08739999999999999,0.0989,-9.7829,0.0078,0.0006000000000000001,-0.004399999999999999
11.060276506912674,-0.1003,0.096,-9.7958,0.0057,0.0006000000000000001,-0.0045000000000000005
11.070276756918924,-0.08,0.0876,-9.789399999999999,0.0049,0.0006000000000000001,-0.0046
11.080277006925174,-0.0844,0.0981,-9.780800000000001,0.0043,0.0005,-0.0042
11.090277256931424,-0.1008,0.0982,-9.7874,0.0053,0.001,-0.0042
11.100277506937674,-0.09899999999999999,0.0797,-9.778599999999999,0.004699999999999999,0.001,-0.0043
11.110277756943924,-0.0754,0.0736,-9.7889,0.0046,0.0005,-0.0043
11.120278006950175,-0.0945,0.0624,-9.777800000000001,0.0049,0.0006000000000000001,-0.0046
11.130278256956425,-0.0782,0.088,-9.7752,0.0052,0.0007999999999999999,-0.004
11.140278506962675,-0.10839999999999998,0.1114,-9.7827,0.0062,0.001,-0.0043
11.150278756968925,-0.108,0.0856,-9.7764,0.0052,0.0007,-0.0039
11.160279006975175,-0.078,0.0825,-9.782,0.0046,0.0,-0.0041
11.170279256981425,-0.0834,0.0668,-9.7832,0.0041,9.999999999999999e-05,-0.0041
11.180279506987675,-0.0794,0.0863,-9.7679,0.0053,0.0005,-0.0036999999999999997
11.190279756993926,-0.1142,0.0945,-9.7728,0.0060999999999999995,0.0010999999999999998,-0.004
11.200280007000176,-0.0952,0.0749,-9.7835,0.0056,0.0009,-0.0036
11.210280257006426,-0.0837,0.0741,-9.7705,0.0052,0.0005,-0.004
11.220280507012676,-0.09709999999999999,0.0846,-9.7866,0.0046,0.0007,-0.0041
11.230280757018926,-0.10579999999999999,0.0921,-9.7622,0.004699999999999999,0.0007999999999999999,-0.0036
11.240281007025176,-0.0907,0.10909999999999999,-9.789299999999999,0.0052,0.001,-0.004
11.250281257031427,-0.1108,0.095,-9.771799999999999,0.0036999999999999997,0.0007,-0.0036999999999999997
11.260281507037677,-0.0766,0.0751,-9.7691,0.0031,0.00030000000000000003,-0.004
11.270281757043927,-0.07029999999999999,0.0826,-9.7915,0.0026,0.00039999999999999996,-0.0039
11.280282007050177,-0.0999,0.0846,-9.7753,0.0034999999999999996,0.0007999999999999999,-0.0036999999999999997
11.290282257056427,-0.1154,0.10859999999999999,-9.7762,0.0041,0.0007,-0.0034999999999999996
11.300282507062677,-0.0916,0.0887,-9.7652,0.0034999999999999996,0.0005,-0.0036999999999999997
11.310282757068927,-0.08360000000000001,0.0674,-9.7762,0.0029,0.0005,-0.0036999999999999997
11.320283007075178,-0.08639999999999999,0.06359999999999999,-9.7881,0.0025,0.0009,-0.0038
11.330283257081428,-0.07780000000000001,0.0961,-9.7941,0.0028,0.001,-0.0034999999999999996
11.340283507087678,-0.1206,0.10070000000000001,-9.784099999999999,0.0031999999999999997,0.0010999999999999998,-0.0036
11.350283757093928,-0.0845,0.09659999999999999,-9.779,0.0029,0.0005,-0.0036
11.360284007100178,-0.0946,0.0805,-9.7479,0.0026999999999999997,0.0005,-0.0038
11.370284257106428,-0.07579999999999999,0.0724,-9.7874,0.0019,0.0007999999999999999,-0.0036
11.380284507112679,-0.1015,0.0882,-9.7788,0.0029,0.0013,-0.0034999999999999996
11.390284757118929,-0.1157,0.0898,-9.79,0.0042,0.0012000000000000001,-0.0034
11.400285007125179,-0.0928,0.0992,-9.7704,0.0036,0.00039999999999999996,-0.0034999999999999996
11.410285257131429,-0.0886,0.0686,-9.754,0.0031,0.00019999999999999998,-0.0036999999999999997
11.42028550713768,-0.0851,0.068,-9.764100000000001,0.0026,0.0005,-0.0036
11.43028575714393,-0.0818,0.0789,-9.782,0.004,0.0010999999999999998,-0.0033
11.44028600715018,-0.11329999999999998,0.12019999999999999,-9.7746,0.0046,0.0010999999999999998,-0.0033
11.45028625715643,-0.0916,0.0986,-9.7633,0.0036999999999999997,0.0005,-0.0034
11.46028650716268,-0.0905,0.057300000000000004,-9.7614,0.0039,0.00039999999999999996,-0.0036
11.47028675716893,-0.0856,0.08209999999999999,-9.7636,0.003,0.0007999999999999999,-0.0033
11.48028700717518,-0.07039999999999999,0.0901,-9.793899999999999,0.0031999999999999997,0.0015,-0.0031999999999999997
11.49028725718143,-0.1325,0.09849999999999999,-9.7636,0.0041,0.0012000000000000001,-0.0031999999999999997
11.50028750718768,-0.0843,0.1093,-9.7683,0.0031,0.0007,-0.0031999999999999997
11.51028775719393,-0.0883,0.0794,-9.7423,0.0021,0.00030000000000000003,-0.0034999999999999996
11.52028800720018,-0.0784,0.08310000000000001,-9.7752,0.002,0.0006000000000000001,-0.0033
11.530288257206431,-0.1026,0.091,-9.7595,0.0026999999999999997,0.0010999999999999998,-0.0031
11.540288507212681,-0.12069999999999999,0.0924,-9.776,0.0038,0.0009,-0.003
11.550288757218931,-0.096,0.0944,-9.7635,0.0025,0.00039999999999999996,-0.0031
11.560289007225181,-0.07479999999999999,0.0625,-9.7731,0.0025,0.00019999999999999998,-0.0033
11.570289257231432,-0.0909,0.0802,-9.7652,0.0025,0.0006000000000000001,-0.0033
11.580289507237682,-0.09709999999999999,0.10189999999999999,-9.7609,0.0026,0.0007999999999999999,-0.0026999999999999997
11.590289757243932,-0.1043,0.1085,-9.7795,0.0028,0.0009,-0.003
11.600290007250182,-0.1033,0.0882,-9.7563,0.0023,0.0006000000000000001,-0.003
11.610290257256432,-0.0781,0.0644,-9.7514,0.0015999999999999999,0.00039999999999999996,-0.0031999999999999997
11.620290507262682,-0.0786,0.0755,-9.7767,0.0014,0.0009,-0.0031
11.630290757268932,-0.11069999999999999,0.0872,-9.764399999999998,0.0026,0.0014,-0.0028
11.640291007275183,-0.10419999999999999,0.0993,-9.7881,0.003,0.0010999999999999998,-0.0028
11.650291257281433,-0.10339999999999999,0.0899,-9.7716,0.0025,0.00039999999999999996,-0.0029
11.660291507287683,-0.08940000000000001,0.078,-9.7561,0.0015,0.00019999999999999998,-0.0031999999999999997
11.670291757293933,-0.0919,0.0833,-9.765,0.0005,0.00030000000000000003,-0.003
11.680292007300183,-0.0843,0.10369999999999999,-9.7738,0.0014,0.0007,-0.0026999999999999997
11.690292257306433,-0.1219,0.1041,-9.773,0.0015,0.0007,-0.003
11.700292507312684,-0.0861,0.0829,-9.7653,0.001,0.00019999999999999998,-0.0026999999999999997
11.710292757318934,-0.079,0.0738,-9.7447,0.0007999999999999999,0.00039999999999999996,-0.0031999999999999997
11.720293007325184,-0.0979,0.08099999999999999,-9.7707,-0.0,0.0009,-0.0025
11.730293257331434,-0.08159999999999999,0.1157,-9.7693,0.00030000000000000003,0.0012000000000000001,-0.0025
11.740293507337684,-0.1092,0.1127,-9.797699999999999,-9.999999999999999e-05,0.0010999999999999998,-0.0026999999999999997
11.750293757343934,-0.11069999999999999,0.10690000000000001,-9.757299999999999,-0.002,0.00039999999999999996,-0.0026
11.760294007350184,-0.0774,0.0833,-9.7418,-0.0031,0.00030000000000000003,-0.0031
11.770294257356435,-0.095,0.0769,-9.7622,-0.0038,0.0007999999999999999,-0.0025
11.780294507362685,-0.08739999999999999,0.0964,-9.7639,-0.0028,0.0012000000000000001,-0.0021999999999999997
11.790294757368935,-0.1151,0.11069999999999999,-9.7736,-0.003,0.0009,-0.0025
11.800295007375185,-0.096,0.07029999999999999,-9.760399999999999,-0.0034999999999999996,0.00039999999999999996,-0.0026999999999999997
11.810295257381435,-0.0896,0.057300000000000004,-9.7613,-0.0036999999999999997,0.00039999999999999996,-0.0026
11.820295507387685,-0.0905,0.0671,-9.7853,-0.0041,0.0009,-0.0026
11.830295757393936,-0.0988,0.0902,-9.780999999999999,-0.003,0.0010999999999999998,-0.0021
11.840296007400186,-0.0992,0.11249999999999999,-9.7833,-0.0024000000000000002,0.0007,-0.0024000000000000002
11.850296257406436,-0.0934,0.0791,-9.7558,-0.004,0.00019999999999999998,-0.0024000000000000002
11.860296507412686,-0.0845,0.0631,-9.7554,-0.0039,0.0006000000000000001,-0.0023
11.870296757418936,-0.0933,0.0741,-9.7651,-0.004699999999999999,0.0012000000000000001,-0.0021999999999999997
11.880297007425186,-0.08789999999999999,0.0875,-9.778599999999999,-0.0038,0.0013,-0.0019
11.890297257431437,-0.1119,0.10289999999999999,-9.7745,-0.0036,0.0009,-0.002
11.900297507437687,-0.09219999999999999,0.0751,-9.7602,-0.0046,0.00030000000000000003,-0.0021999999999999997
11.910297757443937,-0.0881,0.059000000000000004,-9.7513,-0.0057,0.00039999999999999996,-0.0023
11.920298007450187,-0.0884,0.0669,-9.7699,-0.0065,0.001,-0.0024000000000000002
11.930298257456437,-0.0925,0.0862,-9.789499999999999,-0.0057,0.0014,-0.002
11.940298507462687,-0.1176,0.0928,-9.7661,-0.005399999999999999,0.001,-0.0021
11.950298757468937,-0.0935,0.0649,-9.7522,-0.006,0.0005,-0.0021999999999999997
11.960299007475188,-0.0839,0.0571,-9.748999999999999,-0.0063,0.0005,-0.0021
11.970299257481438,-0.0892,0.0656,-9.7759,-0.0067,0.0015,-0.0021
11.980299507487688,-0.0988,0.0829,-9.779,-0.0065,0.0017,-0.0015999999999999999
11.990299757493938,-0.1225,0.091,-9.779599999999999,-0.0067,0.001,-0.0019
12.000300007500188,-0.0992,0.0857,-9.7617,-0.0082,0.00030000000000000003,-0.0019
12.010300257506438,-0.0769,0.0392,-9.7549,-0.008799999999999999,0.0005,-0.0021999999999999997
12.020300507512689,-0.0905,0.0491,-9.7637,-0.0089,0.0010999999999999998,-0.0019
12.030300757518939,-0.0997,0.0745,-9.7788,-0.0078,0.0015999999999999999,-0.0018
12.040301007525189,-0.1075,0.0861,-9.773,-0.0073999999999999995,0.0013,-0.0018
12.050301257531439,-0.104,0.053200000000000004,-9.765699999999999,-0.007499999999999999,0.0009,-0.002
12.06030150753769,-0.0838,0.0508,-9.7566,-0.0085,0.0007,-0.0019
12.07030175754394,-0.0977,0.066,-9.7621,-0.0093,0.0012000000000000001,-0.002
12.08030200755019,-0.0956,0.0647,-9.78,-0.0089,0.0015,-0.0017
12.09030225755644,-0.1126,0.0639,-9.7768,-0.0084,0.0013,-0.0019
12.10030250756269,-0.10439999999999999,0.038099999999999995,-9.7682,-0.0091,0.0009,-0.0015999999999999999
12.11030275756894,-0.0948,0.052700000000000004,-9.7415,-0.0083,0.0005,-0.0018
12.12030300757519,-0.08679999999999999,0.0394,-9.756499999999999,-0.0091,0.0009,-0.002
12.13030325758144,-0.0866,0.0471,-9.7607,-0.0072,0.0014,-0.0013
12.14030350758769,-0.11689999999999999,0.050600000000000006,-9.7681,-0.0065,0.0015,-0.0017
12.15030375759394,-0.10349999999999998,0.0471,-9.7666,-0.0072,0.0009,-0.0015999999999999999
12.16030400760019,-0.0877,0.0312,-9.7489,-0.0071,0.0007,-0.002
12.17030425760644,-0.0829,0.0398,-9.776,-0.0066,0.0014,-0.0018
12.180304507612691,-0.1116,0.0581,-9.7681,-0.006,0.0015999999999999999,-0.0015
12.190304757618941,-0.10269999999999999,0.0624,-9.7716,-0.005399999999999999,0.0012000000000000001,-0.0015999999999999999
12.200305007625191,-0.1077,0.0395,-9.7537,-0.006,0.0006000000000000001,-0.0017
12.210305257631441,-0.0745,0.026,-9.731399999999999,-0.005399999999999999,0.0006000000000000001,-0.0015999999999999999
12.220305507637692,-0.0937,0.0423,-9.7584,-0.0057,0.0014,-0.0015
12.230305757643942,-0.0977,0.041800000000000004,-9.7832,-0.005,0.0017,-0.0013
12.240306007650192,-0.1132,0.0571,-9.7851,-0.004699999999999999,0.0013,-0.0015
12.250306257656442,-0.104,0.0409,-9.7593,-0.0049,0.0007999999999999999,-0.0015
12.260306507662692,-0.0889,0.0193,-9.7701,-0.0049,0.0007999999999999999,-0.0017
12.270306757668942,-0.1093,0.017599999999999998,-9.753599999999999,-0.0050999999999999995,0.0014,-0.0015
12.280307007675193,-0.07579999999999999,0.0554,-9.7744,-0.0039,0.0014,-0.0010999999999999998
12.290307257681443,-0.11750000000000001,0.06620000000000001,-9.7717,-0.004399999999999999,0.0013,-0.0014
12.300307507687693,-0.1137,0.029999999999999995,-9.7525,-0.0042,0.0007,-0.0013
12.310307757693943,-0.08499999999999999,0.0223,-9.7549,-0.0036999999999999997,0.0005,-0.0014
12.320308007700193,-0.0984,0.034699999999999995,-9.7642,-0.0039,0.0010999999999999998,-0.0010999999999999998
12.330308257706443,-0.1018,0.0423,-9.758999999999999,-0.0019,0.0013,-0.0010999999999999998
12.340308507712693,-0.10239999999999999,0.0576,-9.7686,-0.0012000000000000001,0.001,-0.001
12.350308757718944,-0.10300000000000001,0.023,-9.757499999999999,-0.0014,0.0007,-0.0013
12.360309007725194,-0.0959,0.017599999999999998,-9.758,-0.0018,0.0007,-0.0013
12.370309257731444,-0.1033,0.0143,-9.7522,-0.0015999999999999999,0.0013,-0.0010999999999999998
12.380309507737694,-0.075,0.0419,-9.7804,0.0005,0.0015,-0.0009
12.390309757743944,-0.1291,0.0442,-9.7479,0.0010999999999999998,0.0013,-0.001
12.400310007750194,-0.10239999999999999,0.0226,-9.753599999999999,0.0015,0.0006000000000000001,-0.001
12.410310257756445,-0.09,0.0211,-9.7508,0.0009,0.0007,-0.001
12.420310507762695,-0.1108,0.028999999999999998,-9.758999999999999,0.0007999999999999999,0.001,-0.0009
12.430310757768945,-0.0959,0.0585,-9.7601,0.0015999999999999999,0.001,-0.0007999999999999999
12.440311007775195,-0.11349999999999999,0.0456,-9.7637,0.0018,0.0007,-0.0007999999999999999
12.450311257781445,-0.0998,0.0336,-9.7584,0.0014,0.00030000000000000003,-0.0007
12.460311507787695,-0.09309999999999999,0.031599999999999996,-9.7381,0.0013,0.00019999999999999998,-0.0007999999999999999
12.470311757793946,-0.0755,0.0404,-9.7626,0.0009,0.0005,-0.0007999999999999999
12.480312007800196,-0.10790000000000001,0.0462,-9.7594,0.001,0.0010999999999999998,-0.0005
12.490312257806446,-0.11329999999999998,0.051500000000000004,-9.7601,0.0015,0.0009,-0.0007
12.500312507812696,-0.1015,0.0308,-9.7499,0.0010999999999999998,0.00019999999999999998,-0.0007999999999999999
12.510312757818946,-0.10239999999999999,0.0071,-9.7431,0.0009,9.999999999999999e-05,-0.0006000000000000001
12.520313007825196,-0.0901,0.0185,-9.7531,0.0007999999999999999,0.0007,-0.0006000000000000001
12.530313257831446,-0.09179999999999999,0.065,-9.7864,0.0018,0.001,-0.00030000000000000003
12.540313507837697,-0.1186,0.0519,-9.7683,0.0014,0.001,-0.0006000000000000001
12.550313757843947,-0.1028,0.0215,-9.767199999999999,0.0010999999999999998,9.999999999999999e-05,-0.00039999999999999996
12.560314007850197,-0.0988,0.014999999999999998,-9.7443,0.0007999999999999999,-9.999999999999999e-05,-0.0006000000000000001
12.570314257856447,-0.0906,0.0264,-9.7622,0.001,0.00030000000000000003,-0.00039999999999999996
12.580314507862697,-0.10779999999999999,0.0328,-9.7592,0.0023,0.0007,-0.00019999999999999998
12.590314757868947,-0.10839999999999998,0.0321,-9.7676,0.003,0.00030000000000000003,-0.00030000000000000003
12.600315007875198,-0.0947,0.020900000000000002,-9.7529,0.0033,-0.00019999999999999998,-0.0005
12.610315257881448,-0.09179999999999999,0.0058,-9.7637,0.0036,-9.999999999999999e-05,-0.0006000000000000001
12.620315507887698,-0.1111,0.0181,-9.7606,0.0042,0.00039999999999999996,-0.00030000000000000003
12.630315757893948,-0.0933,0.0372,-9.768799999999999,0.0057,0.0006000000000000001,-0.00030000000000000003
12.640316007900198,-0.10779999999999999,0.0413,-9.775,0.0060999999999999995,0.00039999999999999996,-0.00030000000000000003
12.650316257906448,-0.1047,0.026,-9.7753,0.006,9.999999999999999e-05,-0.00030000000000000003
12.660316507912698,-0.0919,0.014100000000000001,-9.7539,0.0063,0.0,-0.0005
12.670316757918949,-0.0889,0.0213,-9.773,0.0063999999999999994,0.0005,-0.00030000000000000003
12.680317007925199,-0.1165,0.0404,-9.770299999999999,0.0078,0.0009,9.999999999999999e-05
12.690317257931449,-0.10759999999999999,0.05330000000000001,-9.787899999999999,0.008,0.0009,-0.00019999999999999998
12.700317507937699,-0.1106,0.0385,-9.7753,0.0073,-0.0,0.0
12.71031775794395,-0.0904,0.034499999999999996,-9.7455,0.0067,-0.0006000000000000001,-0.0005
12.7203180079502,-0.09,0.0207,-9.766,0.0055,0.00019999999999999998,-0.00030000000000000003
12.73031825795645,-0.10590000000000001,0.043,-9.7715,0.007499999999999999,0.0006000000000000001,-0.0
12.7403185079627,-0.1142,0.06359999999999999,-9.772699999999999,0.0069,0.00039999999999999996,-9.999999999999999e-05
12.75031875796895,-0.0878,0.0234,-9.7683,0.006999999999999999,-0.00039999999999999996,-0.00030000000000000003
12.7603190079752,-0.0945,0.013,-9.7685,0.006999999999999999,-0.00019999999999999998,-0.0005
12.77031925798145,-0.0984,0.026699999999999998,-9.7652,0.0069,0.0006000000000000001,9.999999999999999e-05
12.7803195079877,-0.0884,0.0643,-9.777199999999999,0.0076,0.0007999999999999999,9.999999999999999e-05
12.79031975799395,-0.12739999999999999,0.0474,-9.773900000000001,0.007899999999999999,0.0009,-0.00019999999999999998
12.8003200080002,-0.0961,0.0191,-9.7744,0.006999999999999999,0.00039999999999999996,-0.0
12.81032025800645,-0.0947,0.0289,-9.7752,0.0071,0.0006000000000000001,-9.999999999999999e-05
12.820320508012701,-0.12440000000000001,0.0338,-9.7516,0.0067,0.00039999999999999996,-9.999999999999999e-05
12.830320758018951,-0.0754,0.0552,-9.7701,0.0076,0.00039999999999999996,9.999999999999999e-05
12.840321008025201,-0.11839999999999999,0.0351,-9.7705,0.0086,0.0005,-0.00030000000000000003
12.850321258031451,-0.0938,0.0199,-9.776,0.0077,0.00019999999999999998,-0.0
12.860321508037702,-0.10269999999999999,0.0385,-9.7671,0.0078,-9.999999999999999e-05,-9.999999999999999e-05
12.870321758043952,-0.0953,0.02,-9.7693,0.0072,9.999999999999999e-05,-0.00039999999999999996
12.880322008050202,-0.09829999999999998,0.0546,-9.7846,0.007899999999999999,0.0007,0.0
12.890322258056452,-0.1166,0.055900000000000005,-9.7789,0.0081,0.0006000000000000001,-0.0
12.900322508062702,-0.0884,0.0429,-9.7653,0.006999999999999999,-0.0,-0.00039999999999999996
12.910322758068952,-0.10419999999999999,0.020900000000000002,-9.7524,0.0072,0.0,-0.00030000000000000003
12.920323008075203,-0.0973,0.0208,-9.7666,0.0069,0.0007999999999999999,-9.999999999999999e-05
12.930323258081453,-0.0881,0.0615,-9.7845,0.0082,0.0014,0.00019999999999999998
12.940323508087703,-0.12459999999999999,0.061,-9.779300000000001,0.0078,0.0009,-9.999999999999999e-05
12.950323758093953,-0.1006,0.0563,-9.765600000000001,0.006999999999999999,-0.00019999999999999998,-0.00019999999999999998
12.960324008100203,-0.0944,0.0514,-9.757499999999999,0.0063,0.0,-9.999999999999999e-05
12.970324258106453,-0.1013,0.0383,-9.7646,0.0052,0.0006000000000000001,-0.0
12.980324508112703,-0.09779999999999998,0.0665,-9.7767,0.0060999999999999995,0.0007,-9.999999999999999e-05
12.990324758118954,-0.10439999999999999,0.0678,-9.7674,0.0060999999999999995,0.0006000000000000001,-9.999999999999999e-05
13.000325008125204,-0.10319999999999999,0.0446,-9.765799999999999,0.0059,9.999999999999999e-05,-0.00019999999999999998
13.010325258131454,-0.10779999999999999,0.038,-9.7576,0.0059,-9.999999999999999e-05,-0.00030000000000000003
13.020325508137704,-0.0876,0.050699999999999995,-9.7798,0.0052,0.00039999999999999996,0.0
13.030325758143954,-0.0919,0.0558,-9.7882,0.0068,0.0007999999999999999,9.999999999999999e-05
13.040326008150204,-0.11329999999999998,0.055099999999999996,-9.7671,0.006999999999999999,0.0007999999999999999,-9.999999999999999e-05
13.050326258156455,-0.0981,0.045399999999999996,-9.7678,0.0063999999999999994,0.00030000000000000003,9.999999999999999e-05
13.060326508162705,-0.092,0.025599999999999998,-9.761,0.0066,0.00039999999999999996,-0.00019999999999999998
13.070326758168955,-0.09319999999999999,0.0604,-9.775,0.0065,0.0007,0.00019999999999999998
13.080327008175205,-0.11009999999999999,0.0684,-9.774099999999999,0.0069,0.001,9.999999999999999e-05
13.090327258181455,-0.10629999999999999,0.053799999999999994,-9.7783,0.0067,0.0007,9.999999999999999e-05
13.100327508187705,-0.0956,0.053,-9.771799999999999,0.0063,9.999999999999999e-05,-0.0
13.110327758193955,-0.1016,0.0355,-9.7675,0.0055,0.00019999999999999998,-9.999999999999999e-05
13.120328008200206,-0.09259999999999999,0.0674,-9.7807,0.0060999999999999995,0.00039999999999999996,0.00019999999999999998
13.130328258206456,-0.1108,0.0919,-9.7661,0.0058,0.0006000000000000001,0.0
13.140328508212706,-0.0892,0.0648,-9.7716,0.0052,0.00039999999999999996,0.0
13.150328758218956,-0.1026,0.0471,-9.7697,0.004399999999999999,9.999999999999999e-05,0.0
13.160329008225206,-0.1111,0.05999999999999999,-9.7418,0.0039,0.0,-0.00019999999999999998
13.170329258231456,-0.0861,0.0486,-9.7803,0.0024000000000000002,0.00039999999999999996,0.0
13.180329508237707,-0.1099,0.062200000000000005,-9.7636,0.0041,0.0007999999999999999,0.00019999999999999998
13.190329758243957,-0.0929,0.059500000000000004,-9.7701,0.0031999999999999997,0.0007999999999999999,-9.999999999999999e-05
13.200330008250207,-0.09319999999999999,0.0422,-9.7785,0.0025,0.00030000000000000003,0.00019999999999999998
13.210330258256457,-0.1159,0.061399999999999996,-9.745099999999999,0.0024000000000000002,9.999999999999999e-05,-9.999999999999999e-05
13.220330508262707,-0.086,0.0647,-9.7713,0.0015,0.0006000000000000001,0.0
13.230330758268957,-0.1083,0.0719,-9.7745,0.003,0.0007,0.00030000000000000003
13.240331008275207,-0.10529999999999999,0.06319999999999999,-9.7803,0.0021,0.0009,9.999999999999999e-05
13.250331258281458,-0.0936,0.0541,-9.774199999999999,0.0017,0.0,9.999999999999999e-05
13.260331508287708,-0.0832,0.0429,-9.7853,0.0015999999999999999,-9.999999999999999e-05,-0.00030000000000000003
13.270331758293958,-0.0987,0.050199999999999995,-9.767299999999999,0.0019,0.00039999999999999996,0.00019999999999999998
13.280332008300208,-0.1105,0.0777,-9.7801,0.0029,0.0006000000000000001,-9.999999999999999e-05
13.290332258306458,-0.1139,0.0671,-9.7617,0.0019,0.00019999999999999998,-9.999999999999999e-05
13.300332508312708,-0.0907,0.05159999999999999,-9.7636,0.0017,-0.00039999999999999996,-0.0
13.310332758318959,-0.10269999999999999,0.0486,-9.7516,0.0015,-9.999999999999999e-05,-0.00019999999999999998
13.320333008325209,-0.08789999999999999,0.0626,-9.7791,0.0012000000000000001,0.00039999999999999996,0.00019999999999999998
13.330333258331459,-0.11429999999999998,0.0742,-9.7762,0.002,0.0005,9.999999999999999e-05
13.340333508337709,-0.1033,0.052199999999999996,-9.7678,0.0017,9.999999999999999e-05,-9.999999999999999e-05
13.35033375834396,-0.0805,0.0439,-9.7666,0.0014,-0.00039999999999999996,9.999999999999999e-05
13.36033400835021,-0.11,0.0505,-9.7596,0.0012000000000000001,0.00030000000000000003,-9.999999999999999e-05
13.37033425835646,-0.0895,0.0725,-9.7795,0.00039999999999999996,0.00039999999999999996,0.0005
13.38033450836271,-0.108,0.0791,-9.7828,0.0019,0.0006000000000000001,-0.0
13.39033475836896,-0.10839999999999998,0.0732,-9.758799999999999,0.0010999999999999998,9.999999999999999e-05,0.00019999999999999998
13.40033500837521,-0.0881,0.0392,-9.7669,0.0005,-0.00030000000000000003,-9.999999999999999e-05
13.41033525838146,-0.0944,0.044700000000000004,-9.7647,0.0006000000000000001,-0.00019999999999999998,9.999999999999999e-05
13.42033550838771,-0.09659999999999999,0.0394,-9.7777,0.0012000000000000001,0.00019999999999999998,-9.999999999999999e-05
13.43033575839396,-0.1191,0.0634,-9.7729,0.0026,9.999999999999999e-05,0.00030000000000000003
13.44033600840021,-0.0991,0.049499999999999995,-9.765500000000001,0.0029,-0.00019999999999999998,-0.0
13.45033625840646,-0.0902,0.051500000000000004,-9.7734,0.0033,-0.0007999999999999999,-9.999999999999999e-05
13.460336508412711,-0.0929,0.0672,-9.7762,0.0026,-0.00039999999999999996,9.999999999999999e-05
13.470336758418961,-0.09899999999999999,0.05959999999999999,-9.7791,0.0026,-0.0,0.00030000000000000003
13.480337008425211,-0.11,0.073,-9.771199999999999,0.0036,-0.0,0.00039999999999999996
13.490337258431461,-0.09749999999999999,0.060899999999999996,-9.7659,0.003,-9.999999999999999e-05,0.00030000000000000003
13.500337508437712,-0.091,0.0513,-9.777800000000001,0.0025,-0.00019999999999999998,0.00030000000000000003
13.510337758443962,-0.0871,0.0442,-9.770199999999999,0.0021999999999999997,-9.999999999999999e-05,-9.999999999999999e-05
13.520338008450212,-0.0892,0.0554,-9.790799999999999,0.0023,0.0,0.00019999999999999998
13.530338258456462,-0.12869999999999998,0.0578,-9.750599999999999,0.0034999999999999996,-0.00019999999999999998,-9.999999999999999e-05
13.540338508462712,-0.0936,0.0563,-9.775,0.0031999999999999997,-0.0005,9.999999999999999e-05
13.550338758468962,-0.0862,0.055,-9.7777,0.0028,-0.0007999999999999999,-9.999999999999999e-05
13.560339008475212,-0.10740000000000001,0.0523,-9.7596,0.0024000000000000002,-0.0007999999999999999,-9.999999999999999e-05
13.570339258481463,-0.0824,0.0541,-9.7732,0.0024000000000000002,-0.0006000000000000001,9.999999999999999e-05
13.580339508487713,-0.10959999999999999,0.0963,-9.7701,0.0036,-0.0006000000000000001,0.00030000000000000003
13.590339758493963,-0.1056,0.0784,-9.7685,0.0026,-0.0005,0.00030000000000000003
13.600340008500213,-0.084,0.038400000000000004,-9.782599999999999,0.0021999999999999997,-0.001,0.0
13.610340258506463,-0.1049,0.0325,-9.7594,0.0028,-0.0009,9.999999999999999e-05
13.620340508512713,-0.0826,0.0492,-9.786499999999998,0.0025,-0.00019999999999999998,9.999999999999999e-05
13.630340758518964,-0.1075,0.0774,-9.7789,0.0034,-0.00019999999999999998,0.00019999999999999998
13.640341008525214,-0.0961,0.0616,-9.7876,0.0029,-0.00039999999999999996,-0.00019999999999999998
13.650341258531464,-0.0969,0.0669,-9.7601,0.0029,-0.0013,0.0
13.660341508537714,-0.09259999999999999,0.05109999999999999,-9.7653,0.0018,-0.0010999999999999998,-0.00039999999999999996
13.670341758543964,-0.1023,0.061,-9.762899999999998,0.0015,-0.0007,0.00019999999999999998
