Time [s],ACC X [m/s^2],ACC Y [m/s^2],ACC Z [m/s^2],GYRO X [rad/s],GYRO Y [rad/s],GYRO Z [rad/s]
0.0,0.1294,-0.027,-9.7955,-0.002,-0.0031,0.0006000000000000001
0.010000250006250157,0.1549,-0.025099999999999997,-9.825899999999999,-0.0026999999999999997,-0.0034999999999999996,0.0007999999999999999
0.020000500012500314,0.1414,-0.0419,-9.8039,-0.003,-0.0039,0.0006000000000000001
0.030000750018750473,0.1729,-0.0304,-9.78,-0.0034,-0.0041,0.00039999999999999996
0.04000100002500063,0.151,-0.062299999999999994,-9.799199999999999,-0.0034999999999999996,-0.0034999999999999996,0.0006000000000000001
0.050001250031250784,0.1564,-0.041800000000000004,-9.7968,-0.0019,-0.003,0.0009
0.060001500037500946,0.1356,-0.0126,-9.8136,-0.0018,-0.003,0.0007999999999999999
0.0700017500437511,0.1411,-0.0494,-9.8073,-0.0021,-0.0034999999999999996,0.0007
0.08000200005000126,0.1658,-0.0504,-9.8016,-0.0018,-0.0041,0.0005
0.09000225005625141,0.1568,-0.0675,-9.786999999999999,-0.0015,-0.0038,0.0005
0.10000250006250157,0.1636,-0.0372,-9.7998,-0.0005,-0.0033,0.0009
0.11000275006875172,0.1313,-0.021699999999999997,-9.797699999999999,0.00039999999999999996,-0.0029,0.0005
0.12000300007500189,0.1488,-0.0156,-9.8028,-0.0007,-0.0034999999999999996,0.0009
0.13000325008125205,0.1447,-0.0289,-9.7928,-0.0014,-0.004,0.0006000000000000001
0.1400035000875022,0.1871,-0.0391,-9.7914,-0.0017,-0.0039,0.0005
0.15000375009375236,0.1522,-0.0508,-9.802299999999999,-0.0023,-0.0031,0.0009
0.1600040001000025,0.13749999999999998,-0.0235,-9.7903,-0.0013,-0.003,0.0010999999999999998
0.17000425010625267,0.1503,-0.0095,-9.8028,-0.0021,-0.0028,0.0009
0.18000450011250282,0.1515,-0.040499999999999994,-9.8024,-0.0031,-0.003,0.001
0.19000475011875298,0.164,-0.0453,-9.8019,-0.0038,-0.0033,0.0006000000000000001
0.20000500012500314,0.16019999999999998,-0.050100000000000006,-9.8162,-0.004399999999999999,-0.0031,0.0009
0.2100052501312533,0.1489,-0.0438,-9.7873,-0.003,-0.003,0.0009
0.22000550013750345,0.1437,-0.021699999999999997,-9.7912,-0.0021,-0.003,0.001
0.2300057501437536,0.14079999999999998,-0.0207,-9.7956,-0.003,-0.0031,0.0012000000000000001
0.24000600015000378,0.1628,-0.0427,-9.806,-0.0026999999999999997,-0.0033,0.001
0.25000625015625394,0.157,-0.05159999999999999,-9.790899999999999,-0.0031,-0.0034999999999999996,0.0007999999999999999
0.2600065001625041,0.1691,-0.0916,-9.794799999999999,-0.0029,-0.0031999999999999997,0.001
0.27000675016875425,0.1532,-0.0478,-9.801,-0.0009,-0.0029,0.0015
0.2800070001750044,0.1426,-0.0127,-9.789299999999999,-0.00019999999999999998,-0.0029,0.001
0.29000725018125456,0.15089999999999998,-0.0428,-9.7927,-0.0007,-0.0034,0.0010999999999999998
0.3000075001875047,0.1805,-0.0692,-9.7731,-0.001,-0.0033,0.0006000000000000001
0.31000775019375487,0.1596,-0.08789999999999999,-9.795399999999999,-0.0013,-0.0026,0.001
0.320008000200005,0.1542,-0.06269999999999999,-9.8049,0.00030000000000000003,-0.002,0.0010999999999999998
0.3300082502062552,0.1358,-0.0402,-9.7997,0.0015,-0.0025,0.0009
0.34000850021250534,0.1562,-0.0469,-9.7937,0.00030000000000000003,-0.003,0.001
0.3500087502187555,0.1588,-0.05999999999999999,-9.7838,0.0009,-0.0031,0.0009
0.36000900022500565,0.1675,-0.0377,-9.7728,0.0006000000000000001,-0.0031,0.0007999999999999999
0.3700092502312558,0.165,-0.0546,-9.8025,9.999999999999999e-05,-0.0026999999999999997,0.001
0.38000950023750596,0.14350000000000002,-0.0566,-9.7842,0.002,-0.0025,0.001
0.3900097502437561,0.1598,-0.046299999999999994,-9.8104,0.0023,-0.0025,0.001
0.40001000025000627,0.1478,-0.043,-9.812,0.0021,-0.0029,0.0010999999999999998
0.4100102502562564,0.17700000000000002,-0.0471,-9.8126,0.0018,-0.0028,0.0005
0.4200105002625066,0.15309999999999999,-0.0687,-9.7882,0.0017,-0.0026,0.0007999999999999999
0.43001075026875674,0.1663,-0.0613,-9.7872,0.003,-0.0023,0.0009
0.4400110002750069,0.1489,-0.0333,-9.7991,0.0038,-0.0021999999999999997,0.0007
0.45001125028125705,0.1508,-0.0273,-9.8087,0.003,-0.0021999999999999997,0.001
0.4600115002875072,0.1581,-0.0508,-9.8005,0.0029,-0.0026999999999999997,0.0006000000000000001
0.47001175029375736,0.1671,-0.059199999999999996,-9.7845,0.0021,-0.0028,0.0007
0.48001200030000757,0.17459999999999998,-0.0683,-9.7915,0.0025,-0.0023,0.0009
0.4900122503062577,0.15209999999999999,-0.0365,-9.794,0.0041,-0.0018,0.0007999999999999999
0.5000125003125079,0.1437,-0.0363,-9.8001,0.003,-0.0019,0.0009
0.510012750318758,0.1549,-0.0531,-9.7759,0.0031,-0.0024000000000000002,0.0007999999999999999
0.5200130003250082,0.188,-0.0398,-9.7911,0.0025,-0.0025,0.00039999999999999996
0.5300132503312583,0.1745,-0.0633,-9.8121,0.0021999999999999997,-0.002,0.0006000000000000001
0.5400135003375085,0.1409,-0.053200000000000004,-9.7867,0.0028,-0.0015999999999999999,0.0006000000000000001
0.5500137503437587,0.14989999999999998,-0.0281,-9.7763,0.0034999999999999996,-0.0018,0.0006000000000000001
0.5600140003500088,0.16,-0.0421,-9.79,0.0028,-0.0021,0.0006000000000000001
0.570014250356259,0.16419999999999998,-0.0317,-9.8072,0.0029,-0.0021999999999999997,0.0007
0.5800145003625091,0.16670000000000001,-0.0409,-9.7689,0.0021,-0.0021999999999999997,0.0005
0.5900147503687593,0.1757,-0.0603,-9.7882,0.0025,-0.0019,0.0007
0.6000150003750094,0.1572,-0.0404,-9.7989,0.0039,-0.0015999999999999999,0.0007
0.6100152503812596,0.1535,-0.0362,-9.7911,0.0045000000000000005,-0.0014,0.0006000000000000001
0.6200155003875097,0.15510000000000002,-0.0368,-9.789100000000001,0.004399999999999999,-0.0019,0.0007999999999999999
0.6300157503937599,0.1835,-0.054299999999999994,-9.782,0.0045000000000000005,-0.0021999999999999997,0.00019999999999999998
0.64001600040001,0.1655,-0.0589,-9.8009,0.0045000000000000005,-0.0015999999999999999,0.0006000000000000001
0.6500162504062602,0.1558,-0.0456,-9.793,0.005399999999999999,-0.0013,0.0006000000000000001
0.6600165004125104,0.16019999999999998,-0.0246,-9.8043,0.0063,-0.0012000000000000001,0.0005
0.6700167504187605,0.1571,-0.0485,-9.7938,0.0058,-0.0015,0.0005
0.6800170004250107,0.1722,-0.0472,-9.7829,0.0067,-0.0019,0.0006000000000000001
0.6900172504312608,0.159,-0.0369,-9.7711,0.0060999999999999995,-0.0017,0.00039999999999999996
0.700017500437511,0.1763,-0.0448,-9.793,0.0062,-0.0013,0.0007
0.7100177504437611,0.15109999999999998,-0.034,-9.796000000000001,0.0068,-0.0012000000000000001,0.0005
0.7200180004500113,0.1513,-0.0283,-9.7846,0.0073,-0.0014,0.0005
0.7300182504562615,0.1648,-0.028699999999999996,-9.789499999999999,0.0063,-0.0015999999999999999,0.0005
0.7400185004625116,0.18439999999999998,-0.0424,-9.789200000000001,0.0063999999999999994,-0.0015,0.00030000000000000003
0.7500187504687618,0.1707,-0.0369,-9.7958,0.0057,-0.0010999999999999998,0.00039999999999999996
0.7600190004750119,0.15109999999999998,-0.0264,-9.7851,0.0062,-0.001,0.0006000000000000001
0.7700192504812621,0.1656,0.0012000000000000001,-9.7883,0.0058,-0.001,0.0005
0.7800195004875122,0.1587,-0.0215,-9.795,0.0053,-0.0009,0.00039999999999999996
0.7900197504937624,0.17329999999999998,-0.0238,-9.7851,0.0045000000000000005,-0.0015,0.0005
0.8000200005000125,0.1623,-0.0228,-9.7775,0.0039,-0.0012000000000000001,0.00019999999999999998
0.8100202505062627,0.1585,-0.0438,-9.7886,0.0041,-0.0009,0.0005
0.8200205005125129,0.1717,-0.0193,-9.7845,0.004699999999999999,-0.0006000000000000001,0.0007
0.830020750518763,0.1686,-0.014999999999999998,-9.7951,0.004699999999999999,-0.0009,0.0005
0.8400210005250132,0.1528,-0.022699999999999998,-9.7797,0.004399999999999999,-0.0013,0.00030000000000000003
0.8500212505312633,0.1747,-0.0417,-9.7768,0.0041,-0.0014,0.00030000000000000003
0.8600215005375135,0.181,-0.0465,-9.7965,0.0039,-0.001,0.00030000000000000003
0.8700217505437636,0.176,-0.0387,-9.7935,0.0052,-0.00039999999999999996,0.00039999999999999996
0.8800220005500138,0.1294,-0.018699999999999998,-9.8002,0.0058,-0.0006000000000000001,0.00039999999999999996
0.8900222505562639,0.1698,-0.0127,-9.7744,0.005399999999999999,-0.0009,0.0005
0.9000225005625141,0.1802,-0.0356,-9.797699999999999,0.0050999999999999995,-0.0007999999999999999,0.00019999999999999998
0.9100227505687642,0.1763,-0.0462,-9.795399999999999,0.0052,-0.0006000000000000001,0.00019999999999999998
0.9200230005750144,0.1565,-0.046599999999999996,-9.7903,0.0052,-9.999999999999999e-05,0.00039999999999999996
0.9300232505812646,0.1621,-0.0089,-9.790899999999999,0.0068,-0.00019999999999999998,0.0006000000000000001
0.9400235005875147,0.1683,0.0167,-9.7966,0.0060999999999999995,-0.00039999999999999996,0.00039999999999999996
0.9500237505937649,0.1548,-0.029999999999999995,-9.7752,0.0058,-0.0007999999999999999,0.00030000000000000003
0.9600240006000151,0.1908,-0.0286,-9.7816,0.0055,-0.0010999999999999998,9.999999999999999e-05
0.9700242506062653,0.159,-0.040499999999999994,-9.780800000000001,0.0055,-0.0006000000000000001,0.00030000000000000003
0.9800245006125154,0.16620000000000001,-0.0172,-9.787899999999999,0.0063999999999999994,-0.00030000000000000003,0.0005
0.9900247506187656,0.1568,-0.0023,-9.7815,0.006999999999999999,-0.00019999999999999998,0.00019999999999999998
1.0000250006250158,0.1649,-0.0163,-9.7957,0.0063999999999999994,-0.00039999999999999996,0.00039999999999999996
1.010025250631266,0.1732,-0.0171,-9.7729,0.0060999999999999995,-0.0007,0.00019999999999999998
1.020025500637516,0.18389999999999998,-0.0321,-9.7764,0.005399999999999999,-0.00030000000000000003,0.00019999999999999998
1.0300257506437662,0.1567,-0.020399999999999998,-9.7767,0.006,9.999999999999999e-05,0.00030000000000000003
1.0400260006500164,0.1569,-0.0107,-9.7789,0.0069,0.00030000000000000003,0.00030000000000000003
1.0500262506562665,0.16590000000000002,-0.0089,-9.7929,0.0059,0.0,0.00039999999999999996
1.0600265006625167,0.16119999999999998,-0.0341,-9.7734,0.0066,-0.0005,9.999999999999999e-05
1.0700267506687668,0.1895,-0.024,-9.7902,0.0060999999999999995,-0.00019999999999999998,9.999999999999999e-05
1.080027000675017,0.16,-0.0394,-9.7791,0.0068,-9.999999999999999e-05,0.00019999999999999998
1.0900272506812672,0.17750000000000002,-0.008799999999999999,-9.7935,0.0073999999999999995,9.999999999999999e-05,0.00030000000000000003
1.1000275006875173,0.1455,-0.0062,-9.789399999999999,0.007499999999999999,0.00019999999999999998,9.999999999999999e-05
1.1100277506937675,0.1636,-0.0071,-9.777800000000001,0.0073,-0.00019999999999999998,0.00030000000000000003
1.1200280007000176,0.1893,-0.005399999999999999,-9.7907,0.0062,-0.00039999999999999996,-9.999999999999999e-05
1.1300282507062678,0.1651,-0.0344,-9.796199999999999,0.006,-9.999999999999999e-05,-9.999999999999999e-05
1.140028500712518,0.168,-0.009399999999999999,-9.7732,0.0071,0.00030000000000000003,0.00030000000000000003
1.150028750718768,0.15239999999999998,0.0124,-9.7838,0.007499999999999999,0.0005,0.00019999999999999998
1.1600290007250182,0.1643,-0.0049,-9.7927,0.0062,0.00019999999999999998,0.00019999999999999998
1.1700292507312684,0.1714,-0.006999999999999999,-9.7889,0.0062,-0.00019999999999999998,0.00019999999999999998
1.1800295007375186,0.18539999999999998,0.01,-9.7737,0.0050999999999999995,-9.999999999999999e-05,-9.999999999999999e-05
1.1900297507437687,0.1624,-0.017,-9.7858,0.0046,0.00030000000000000003,0.00019999999999999998
1.2000300007500189,0.1537,0.008,-9.7732,0.0056,0.0006000000000000001,0.00030000000000000003
1.210030250756269,0.1694,0.0186,-9.7857,0.0048000000000000004,0.0005,0.00039999999999999996
1.2200305007625192,0.16369999999999998,0.0031,-9.7901,0.0048000000000000004,9.999999999999999e-05,0.00030000000000000003
1.2300307507687693,0.176,-0.002,-9.773,0.0041,-9.999999999999999e-05,-0.0
1.2400310007750195,0.1749,-0.022,-9.7803,0.0038,0.00039999999999999996,0.00030000000000000003
1.2500312507812696,0.1765,0.0055,-9.7881,0.0046,0.0007999999999999999,0.00030000000000000003
1.2600315007875198,0.15169999999999997,0.025799999999999997,-9.793,0.004699999999999999,0.0007999999999999999,0.00030000000000000003
1.27003175079377,0.1544,0.010199999999999999,-9.775699999999999,0.0038,0.00019999999999999998,0.00039999999999999996
1.28003200080002,0.1899,0.0052,-9.783999999999999,0.003,9.999999999999999e-05,9.999999999999999e-05
1.2900322508062703,0.1641,-0.0093,-9.7831,0.0023,0.0005,0.00019999999999999998
1.3000325008125204,0.1745,-0.0009,-9.782,0.0028,0.0009,0.0005
1.3100327508187706,0.1502,0.0221,-9.7937,0.0031999999999999997,0.0009,0.00039999999999999996
1.3200330008250207,0.1686,0.009399999999999999,-9.7798,0.0021,0.0006000000000000001,0.00030000000000000003
1.3300332508312709,0.172,-0.0179,-9.7832,0.0021,0.00039999999999999996,0.00030000000000000003
1.340033500837521,0.1673,-0.006999999999999999,-9.769400000000001,0.0017,0.00030000000000000003,9.999999999999999e-05
1.3500337508437712,0.18359999999999999,-0.0126,-9.783999999999999,0.0013,0.0007999999999999999,0.00019999999999999998
1.3600340008500214,0.1532,0.002,-9.7911,0.0024000000000000002,0.0010999999999999998,0.0005
1.3700342508562715,0.1664,0.0178,-9.8002,0.0023,0.001,0.00019999999999999998
1.3800345008625217,0.1527,-0.0118,-9.7872,0.002,0.0006000000000000001,0.00030000000000000003
1.3900347508687718,0.1868,0.0009,-9.7737,0.0019,0.00039999999999999996,0.00019999999999999998
1.400035000875022,0.1795,-0.014499999999999999,-9.7933,0.0014,0.0009,0.0
1.4100352508812721,0.1674,-0.0049,-9.787700000000001,0.0025,0.0015,0.0006000000000000001
1.4200355008875223,0.155,0.0164,-9.7835,0.0034999999999999996,0.0015,0.00030000000000000003
1.4300357508937724,0.159,0.0147,-9.7902,0.0024000000000000002,0.001,0.00039999999999999996
1.4400360009000226,0.1765,-0.01,-9.7836,0.0021999999999999997,0.0006000000000000001,0.00019999999999999998
1.4500362509062728,0.1822,-0.0042,-9.789399999999999,0.0023,0.0007999999999999999,0.00019999999999999998
1.460036500912523,0.1655,-0.0121,-9.7803,0.0024000000000000002,0.0013,0.00019999999999999998
1.470036750918773,0.1638,0.0211,-9.7822,0.0036999999999999997,0.0013,0.0006000000000000001
1.4800370009250232,0.1604,0.007499999999999999,-9.769400000000001,0.0031,0.0013,9.999999999999999e-05
1.4900372509312734,0.1679,-0.0152,-9.7922,0.0033,0.001,0.00039999999999999996
1.5000375009375235,0.1742,-0.0029,-9.7849,0.0028,0.0009,0.00019999999999999998
1.5100377509437737,0.179,-0.0071,-9.7951,0.003,0.0012000000000000001,0.00019999999999999998
1.5200380009500238,0.1631,0.009399999999999999,-9.7792,0.0041,0.0015999999999999999,0.0005
1.530038250956274,0.1562,0.0092,-9.7788,0.0042,0.0015999999999999999,9.999999999999999e-05
1.5400385009625241,0.167,-0.017599999999999998,-9.790799999999999,0.004,0.0014,0.0005
1.5500387509687743,0.16999999999999998,-0.0036999999999999997,-9.7777,0.0041,0.0012000000000000001,0.00019999999999999998
1.5600390009750245,0.17880000000000001,-0.0168,-9.7875,0.0033,0.0015999999999999999,-9.999999999999999e-05
1.5700392509812746,0.1693,-0.025099999999999997,-9.797799999999999,0.0036999999999999997,0.0017,0.00030000000000000003
1.5800395009875248,0.1443,0.0167,-9.7682,0.0053,0.0015999999999999999,0.00019999999999999998
1.590039750993775,0.1719,0.026699999999999998,-9.7821,0.0038,0.0013,0.00030000000000000003
1.600040001000025,0.1755,0.0021999999999999997,-9.7853,0.0039,0.001,9.999999999999999e-05
1.6100402510062752,0.164,0.0078,-9.773,0.0031,0.0013,9.999999999999999e-05
1.6200405010125254,0.1658,-0.0010999999999999998,-9.7708,0.0025,0.0015,0.00030000000000000003
1.6300407510187755,0.17129999999999998,0.0154,-9.7911,0.0031,0.0015999999999999999,0.00019999999999999998
1.6400410010250257,0.1634,0.0358,-9.780999999999999,0.0024000000000000002,0.0017,0.00019999999999999998
1.6500412510312759,0.1655,0.0107,-9.782599999999999,0.0014,0.0014,9.999999999999999e-05
1.660041501037526,0.1691,-0.0085,-9.766,0.0014,0.0010999999999999998,-9.999999999999999e-05
1.6700417510437762,0.1835,-0.006999999999999999,-9.7721,0.0007999999999999999,0.0015,-0.0
1.6800420010500263,0.16999999999999998,0.0019,-9.777099999999999,0.0015,0.002,9.999999999999999e-05
1.6900422510562765,0.153,0.0273,-9.7998,0.0023,0.0021,0.00019999999999999998
1.7000425010625266,0.1534,0.0242,-9.7798,0.0015,0.0015,0.0
1.7100427510687768,0.1784,0.00039999999999999996,-9.7863,0.0009,0.001,-9.999999999999999e-05
1.720043001075027,0.17379999999999998,-0.014100000000000001,-9.7729,0.0007999999999999999,0.0013,-9.999999999999999e-05
1.730043251081277,0.1744,-0.0039,-9.7846,0.0018,0.002,0.00030000000000000003
1.7400435010875273,0.1465,0.0177,-9.7872,0.0029,0.002,0.00019999999999999998
1.7500437510937774,0.1628,0.021699999999999997,-9.7913,0.003,0.0015,0.00030000000000000003
1.7600440011000276,0.1572,0.0012000000000000001,-9.7681,0.003,0.001,9.999999999999999e-05
1.7700442511062777,0.18569999999999998,0.0043,-9.7769,0.0026999999999999997,0.001,-9.999999999999999e-05
1.7800445011125279,0.17309999999999998,0.001,-9.7899,0.003,0.0017,0.00019999999999999998
1.790044751118778,0.154,0.025099999999999997,-9.7801,0.0041,0.0021,0.00030000000000000003
1.8000450011250282,0.164,0.0349,-9.786200000000001,0.0034999999999999996,0.0019,0.00019999999999999998
1.8100452511312783,0.16149999999999998,0.0174,-9.7802,0.0031,0.0014,0.00030000000000000003
1.8200455011375285,0.16949999999999998,0.0214,-9.7711,0.0026,0.0010999999999999998,-0.0
1.8300457511437787,0.1797,-0.0034,-9.7943,0.0015,0.0017,0.00019999999999999998
1.8400460011500288,0.1598,0.0093,-9.7863,0.0028,0.0019,0.0006000000000000001
1.850046251156279,0.1525,0.0423,-9.7806,0.0036999999999999997,0.0019,0.00019999999999999998
1.8600465011625291,0.1611,0.014999999999999998,-9.783999999999999,0.0024000000000000002,0.0015999999999999999,0.0005
1.8700467511687793,0.1668,-0.0066,-9.7919,0.0023,0.0015,9.999999999999999e-05
1.8800470011750294,0.15839999999999999,0.0039,-9.7737,0.0019,0.0015999999999999999,0.00030000000000000003
1.8900472511812796,0.1754,0.0059,-9.7956,0.0021999999999999997,0.0018,0.00039999999999999996
1.9000475011875297,0.1484,0.0241,-9.7831,0.0033,0.0017,0.0005
1.91004775119378,0.1663,0.0302,-9.7832,0.0029,0.0018,0.00039999999999999996
1.9200480012000303,0.1623,0.014999999999999998,-9.7815,0.0026,0.0015,0.00030000000000000003
1.9300482512062804,0.1696,0.0034,-9.788499999999999,0.0021,0.0014,0.00019999999999999998
1.9400485012125306,0.1699,-0.0009,-9.779,0.0026999999999999997,0.0017,0.00039999999999999996
1.9500487512187807,0.1696,0.029799999999999997,-9.7938,0.003,0.0021,0.0007
1.960049001225031,0.1436,0.0238,-9.804499999999999,0.0034999999999999996,0.0021999999999999997,0.00019999999999999998
1.970049251231281,0.1548,0.0207,-9.7817,0.0025,0.0015999999999999999,0.0007999999999999999
1.9800495012375312,0.17149999999999999,0.010799999999999999,-9.775699999999999,0.002,0.0013,0.0
1.9900497512437814,0.1797,0.0041,-9.796000000000001,0.0012000000000000001,0.0015999999999999999,0.00039999999999999996
2.0000500012500315,0.16,0.008799999999999999,-9.7843,0.0021999999999999997,0.0021,0.0006000000000000001
2.0100502512562817,0.1464,0.0429,-9.7849,0.003,0.002,0.0005
2.020050501262532,0.16720000000000002,0.029799999999999997,-9.799299999999999,0.0017,0.0018,0.00039999999999999996
2.030050751268782,0.1649,0.009600000000000001,-9.802,0.0014,0.0017,0.00030000000000000003
2.040051001275032,0.1559,0.0036999999999999997,-9.7878,0.00039999999999999996,0.0018,0.00039999999999999996
2.0500512512812823,0.1709,-0.0028,-9.7914,0.0013,0.0021,0.00039999999999999996
2.0600515012875324,0.1553,0.0328,-9.7817,0.002,0.0023,0.0006000000000000001
2.0700517512937826,0.1549,0.0213,-9.8004,0.0010999999999999998,0.0023,0.0006000000000000001
2.0800520013000328,0.1619,0.0112,-9.780899999999999,0.0010999999999999998,0.0017,0.00030000000000000003
2.090052251306283,0.18389999999999998,0.0104,-9.7876,0.00039999999999999996,0.0015,0.00019999999999999998
2.100052501312533,0.15510000000000002,0.014100000000000001,-9.7837,0.00019999999999999998,0.0018,0.00039999999999999996
2.1100527513187832,0.1623,0.021599999999999998,-9.789200000000001,0.00039999999999999996,0.0021999999999999997,0.00039999999999999996
2.1200530013250334,0.1476,0.024399999999999998,-9.8,0.00039999999999999996,0.0021999999999999997,0.0005
2.1300532513312835,0.1518,0.0354,-9.7817,-0.0005,0.0017,0.0005
2.1400535013375337,0.186,0.019799999999999998,-9.7926,-0.0014,0.0018,9.999999999999999e-05
2.150053751343784,0.1552,0.0043,-9.7829,-0.0014,0.002,0.00030000000000000003
2.160054001350034,0.1548,0.0138,-9.7937,-0.0015999999999999999,0.0025,0.0006000000000000001
2.170054251356284,0.13929999999999998,0.0401,-9.7996,-0.0007,0.0024000000000000002,0.0005
2.1800545013625343,0.173,0.0283,-9.799299999999999,-0.0021999999999999997,0.0021999999999999997,0.00030000000000000003
2.1900547513687845,0.1698,-0.00039999999999999996,-9.7881,-0.0021,0.0019,0.00030000000000000003
2.2000550013750346,0.1569,0.009399999999999999,-9.7716,-0.0028,0.0019,9.999999999999999e-05
2.210055251381285,0.173,0.005,-9.7765,-0.0028,0.0021999999999999997,0.0005
2.220055501387535,0.1527,0.037599999999999995,-9.7998,-0.0015999999999999999,0.0024000000000000002,0.00039999999999999996
2.230055751393785,0.1473,0.039,-9.7837,-0.0028,0.002,0.0005
2.2400560014000352,0.1575,0.0059,-9.7768,-0.0033,0.0015999999999999999,0.00030000000000000003
2.2500562514062854,0.17279999999999998,0.0038,-9.791,-0.0039,0.0015999999999999999,0.00019999999999999998
2.2600565014125356,0.1647,0.002,-9.7957,-0.0041,0.0021999999999999997,0.00030000000000000003
2.2700567514187857,0.15159999999999998,0.0116,-9.799,-0.0033,0.0023,0.0005
2.280057001425036,0.15360000000000001,0.0424,-9.7958,-0.0033,0.002,0.0005
2.290057251431286,0.15610000000000002,0.0084,-9.7754,-0.004,0.0019,0.00019999999999999998
2.300057501437536,0.1851,0.001,-9.807699999999999,-0.004399999999999999,0.002,0.00030000000000000003
2.3100577514437863,0.1402,0.0018,-9.7913,-0.0048000000000000004,0.0023,0.00030000000000000003
2.3200580014500365,0.1719,0.0056,-9.7859,-0.0043,0.0025,0.00039999999999999996
2.3300582514562866,0.1326,0.0291,-9.7959,-0.0034,0.0023,0.0005
2.340058501462537,0.159,0.030899999999999997,-9.788499999999999,-0.004,0.002,0.00039999999999999996
2.350058751468787,0.16670000000000001,0.0125,-9.7981,-0.004699999999999999,0.0018,0.00039999999999999996
2.360059001475037,0.1451,-0.0066,-9.789200000000001,-0.0049,0.0017,0.00019999999999999998
2.3700592514812873,0.1806,-0.0052,-9.7965,-0.0045000000000000005,0.0021,0.0005
2.3800595014875374,0.152,0.017499999999999998,-9.8005,-0.0031999999999999997,0.0023,0.0005
2.3900597514937876,0.14959999999999998,0.0212,-9.8071,-0.0033,0.0023,0.00030000000000000003
2.4000600015000377,0.1327,-0.0013,-9.7832,-0.0038,0.0019,0.00039999999999999996
2.410060251506288,0.1773,9.999999999999999e-05,-9.7946,-0.004399999999999999,0.0018,0.00030000000000000003
2.420060501512538,0.1717,0.0017,-9.8002,-0.0045000000000000005,0.0023,0.00030000000000000003
2.430060751518788,0.1436,0.0156,-9.789,-0.0038,0.0024000000000000002,0.0005
2.4400610015250384,0.158,0.0234,-9.7955,-0.0041,0.0024000000000000002,0.0005
2.4500612515312885,0.14450000000000002,0.004,-9.7952,-0.0043,0.0021,0.0005
2.4600615015375387,0.1712,0.0111,-9.793,-0.0046,0.0019,0.00039999999999999996
2.470061751543789,0.16249999999999998,-9.999999999999999e-05,-9.809199999999999,-0.0057,0.0021999999999999997,0.00030000000000000003
2.480062001550039,0.15189999999999998,-0.0005,-9.803799999999999,-0.0046,0.0023,0.0007
2.490062251556289,0.1379,0.0241,-9.7964,-0.0038,0.0024000000000000002,0.0005
2.5000625015625393,0.1582,0.0073,-9.790799999999999,-0.004399999999999999,0.0021999999999999997,0.0005
2.5100627515687894,0.1616,-0.0014,-9.797,-0.004699999999999999,0.002,0.00030000000000000003
2.5200630015750396,0.1562,-0.013,-9.788499999999999,-0.005,0.0021999999999999997,0.00019999999999999998
2.5300632515812898,0.1647,-0.0069,-9.8135,-0.0048000000000000004,0.0025,0.0006000000000000001
2.54006350158754,0.1387,0.0275,-9.789100000000001,-0.0036,0.0025,0.0005
2.55006375159379,0.1609,0.0263,-9.8155,-0.004699999999999999,0.0024000000000000002,0.0006000000000000001
2.56006400160004,0.1378,-0.004,-9.779300000000001,-0.0048000000000000004,0.0018,0.00039999999999999996
2.5700642516062904,0.17279999999999998,-0.0123,-9.7697,-0.005,0.0019,0.00039999999999999996
2.5800645016125405,0.1604,-0.012199999999999999,-9.7976,-0.005399999999999999,0.0025,0.0007999999999999999
2.5900647516187907,0.14350000000000002,0.015899999999999997,-9.7976,-0.0041,0.0026,0.0007
2.600065001625041,0.1477,0.011,-9.8089,-0.0053,0.0024000000000000002,0.0006000000000000001
2.610065251631291,0.15,-0.0224,-9.7898,-0.0048000000000000004,0.0018,0.0005
2.620065501637541,0.17409999999999998,-0.006,-9.7942,-0.004699999999999999,0.0018,0.00019999999999999998
2.6300657516437913,0.1574,-0.0185,-9.7965,-0.0050999999999999995,0.0024000000000000002,0.00039999999999999996
2.6400660016500415,0.1609,-0.013699999999999999,-9.8019,-0.0033,0.0028,0.0006000000000000001
2.6500662516562916,0.1278,0.005399999999999999,-9.7996,-0.0021999999999999997,0.0029,0.0005
2.6600665016625418,0.15460000000000002,0.0119,-9.8122,-0.0028,0.0025,0.0007999999999999999
2.670066751668792,0.155,-0.0073999999999999995,-9.8134,-0.003,0.0021,0.00039999999999999996
2.680067001675042,0.152,-0.020900000000000002,-9.7933,-0.0034,0.0019,0.0005
2.6900672516812922,0.1724,-0.0169,-9.8052,-0.0023,0.0024000000000000002,0.0007
2.7000675016875424,0.1286,0.0103,-9.7955,-0.0009,0.0025,0.0007
2.7100677516937925,0.148,0.0053,-9.794899999999998,-0.001,0.0023,0.0007
2.7200680017000427,0.1553,-0.0194,-9.7938,-0.0010999999999999998,0.0019,0.0005
2.730068251706293,0.1709,-0.0224,-9.8063,-0.001,0.0021,0.00030000000000000003
2.740068501712543,0.1482,-0.0172,-9.8095,-0.0007999999999999999,0.0026,0.0007
2.750068751718793,0.1471,0.01,-9.804,0.00019999999999999998,0.0026999999999999997,0.0007
2.7600690017250433,0.14679999999999999,0.0049,-9.806099999999999,-0.00030000000000000003,0.0026,0.00039999999999999996
2.7700692517312935,0.1489,-0.0177,-9.809800000000001,9.999999999999999e-05,0.0024000000000000002,0.0007
2.7800695017375436,0.1539,0.0083,-9.7858,-0.0005,0.0023,0.00039999999999999996
2.790069751743794,0.1675,-0.034,-9.8048,-0.0013,0.0026999999999999997,0.00030000000000000003
2.800070001750044,0.1512,-0.0071,-9.8078,9.999999999999999e-05,0.0028,0.0010999999999999998
2.810070251756294,0.1308,0.0248,-9.796899999999999,0.0005,0.0029,0.0005
2.8200705017625443,0.1488,-0.0025,-9.7991,-0.00019999999999999998,0.0025,0.0009
2.8300707517687944,0.1574,-0.0191,-9.8003,-0.0006000000000000001,0.0021999999999999997,0.0006000000000000001
2.8400710017750446,0.1621,-0.0086,-9.8025,-0.0012000000000000001,0.0024000000000000002,0.0006000000000000001
2.8500712517812947,0.14909999999999998,-0.0007,-9.815999999999999,-0.0007,0.0028,0.0007999999999999999
2.860071501787545,0.1304,0.0118,-9.7937,0.00030000000000000003,0.0024000000000000002,0.0007
2.870071751793795,0.152,0.0136,-9.7938,-0.001,0.0023,0.0007
2.880072001800045,0.15059999999999998,-0.0162,-9.789,-0.0014,0.0021,0.0005
2.8900722518062953,0.1708,-0.0202,-9.8053,-0.0015999999999999999,0.0024000000000000002,0.0007
2.9000725018125455,0.1476,-0.005399999999999999,-9.7994,-0.0007999999999999999,0.0031,0.0009
2.9100727518187957,0.1335,0.012199999999999999,-9.786999999999999,-9.999999999999999e-05,0.0031,0.0009
2.920073001825046,0.1532,0.0063,-9.8135,-0.001,0.003,0.0009
2.930073251831296,0.1288,-0.0103,-9.8075,-0.0013,0.0025,0.0009
2.940073501837546,0.1678,0.0021,-9.7838,-0.0021999999999999997,0.0021,0.0007
2.9500737518437963,0.1555,-0.0236,-9.8066,-0.0025,0.0024000000000000002,0.0006000000000000001
2.9600740018500464,0.1334,-0.0048000000000000004,-9.775699999999999,-0.002,0.0026,0.0010999999999999998
2.9700742518562966,0.15309999999999999,-0.0026999999999999997,-9.8099,-0.0017,0.0029,0.0005
2.9800745018625467,0.1333,-0.013300000000000001,-9.8108,-0.0023,0.0023,0.0009
2.990074751868797,0.1549,-0.0136,-9.789299999999999,-0.0028,0.0019,0.0006000000000000001
3.000075001875047,0.156,-0.0173,-9.796100000000001,-0.0033,0.0021,0.0006000000000000001
3.010075251881297,0.15969999999999998,-0.0083,-9.8003,-0.0026999999999999997,0.0028,0.0009
3.0200755018875474,0.1289,0.0057,-9.797799999999999,-0.0021,0.0029,0.0009
3.0300757518937975,0.14009999999999997,0.006999999999999999,-9.7889,-0.0031999999999999997,0.0024000000000000002,0.0007999999999999999
3.0400760019000477,0.1579,-0.0231,-9.793899999999999,-0.0033,0.0021999999999999997,0.0007
3.050076251906298,0.1471,-0.022699999999999998,-9.813099999999999,-0.0034,0.0025,0.0007999999999999999
3.060076501912548,0.1377,-0.026,-9.786200000000001,-0.0026,0.0026,0.0007999999999999999
3.070076751918798,0.1367,0.007899999999999999,-9.8027,-0.0019,0.0025,0.001
3.0800770019250483,0.1421,-0.0049,-9.797799999999999,-0.0015999999999999999,0.0026,0.0007
3.0900772519312985,0.1473,-0.0197,-9.803799999999999,-0.0012000000000000001,0.0024000000000000002,0.0007999999999999999
3.1000775019375486,0.1428,-0.0181,-9.794799999999999,-0.0019,0.0019,0.0007
3.1100777519437988,0.1583,-0.021599999999999998,-9.8049,-0.002,0.0021999999999999997,0.0007
3.120078001950049,0.1318,-0.0066,-9.7986,-0.0005,0.0024000000000000002,0.0009
3.130078251956299,0.1391,-0.004399999999999999,-9.8097,-0.0006000000000000001,0.0023,0.0009
3.1400785019625492,0.1352,-0.0203,-9.7904,-0.00039999999999999996,0.002,0.0009
3.1500787519687994,0.1569,-0.0364,-9.7886,-0.00030000000000000003,0.0019,0.0006000000000000001
3.1600790019750495,0.1579,-0.0368,-9.8048,-0.00039999999999999996,0.0021,0.0009
3.1700792519812997,0.1335,-0.0065,-9.796000000000001,0.0009,0.0025,0.001
3.18007950198755,0.12919999999999998,-0.0014,-9.802900000000001,0.001,0.0025,0.0007
3.1900797519938,0.1471,-0.0167,-9.7955,0.00019999999999999998,0.0023,0.0009
3.20008000200005,0.1538,-0.0223,-9.8052,0.00030000000000000003,0.0021,0.0006000000000000001
3.2100802520063003,0.1291,-0.0147,-9.7976,-9.999999999999999e-05,0.0021999999999999997,0.0007
3.2200805020125505,0.1488,-0.0232,-9.7951,9.999999999999999e-05,0.0024000000000000002,0.0007999999999999999
3.2300807520188006,0.1359,-0.0042,-9.8176,0.0009,0.0026,0.0007999999999999999
3.240081002025051,0.12539999999999998,-0.0157,-9.8161,-0.00019999999999999998,0.0025,0.0007
3.250081252031301,0.13799999999999998,-0.026600000000000002,-9.7982,9.999999999999999e-05,0.0017,0.0006000000000000001
3.260081502037551,0.1529,-0.0135,-9.7815,-0.0007,0.0013,0.0005
3.2700817520438012,0.15259999999999999,-0.0312,-9.807599999999999,-0.0012000000000000001,0.002,0.0006000000000000001
3.2800820020500514,0.1222,-0.0107,-9.7896,-0.00019999999999999998,0.0021,0.0007
3.2900822520563016,0.1488,0.0026,-9.8121,-0.0007999999999999999,0.0023,0.0007
3.3000825020625517,0.135,-0.0163,-9.8052,-0.0007,0.0021,0.0006000000000000001
3.310082752068802,0.1475,-0.0194,-9.7959,-0.0009,0.0018,0.00019999999999999998
3.320083002075052,0.15,-0.040799999999999996,-9.8171,-0.0017,0.0021,0.0005
3.330083252081302,0.1318,-0.0101,-9.7933,-0.0007999999999999999,0.0025,0.0007
3.3400835020875523,0.1349,0.0167,-9.8042,-0.0007999999999999999,0.0026,0.00039999999999999996
3.3500837520938025,0.1336,-0.0073,-9.8037,-0.0024000000000000002,0.0021999999999999997,0.0006000000000000001
3.3600840021000526,0.1399,-0.024399999999999998,-9.7946,-0.0026,0.0018,0.00019999999999999998
3.370084252106303,0.1471,-0.034499999999999996,-9.8119,-0.0031,0.0019,0.00030000000000000003
3.380084502112553,0.1318,-0.0207,-9.7947,-0.0023,0.002,0.0007
3.390084752118803,0.12459999999999999,0.0086,-9.799299999999999,-0.0014,0.0021,0.00039999999999999996
3.4000850021250533,0.1412,-0.007499999999999999,-9.811599999999999,-0.0026999999999999997,0.002,0.0006000000000000001
3.4100852521313034,0.1464,-0.0229,-9.812800000000001,-0.0029,0.0018,0.0005
3.4200855021375536,0.1344,-0.006,-9.7903,-0.0034,0.0015,0.00030000000000000003
3.4300857521438037,0.1471,-0.0234,-9.7942,-0.0038,0.0019,0.0005
3.440086002150054,0.1268,-0.0042,-9.797500000000001,-0.0025,0.0021999999999999997,0.0005
3.450086252156304,0.1402,-0.0021999999999999997,-9.8017,-0.0031999999999999997,0.0024000000000000002,0.0006000000000000001
3.460086502162554,0.13949999999999999,-0.0199,-9.8165,-0.0034,0.0021999999999999997,0.0005
3.4700867521688044,0.1428,-0.0356,-9.8057,-0.0034999999999999996,0.0019,0.00030000000000000003
3.4800870021750545,0.1399,-0.026099999999999998,-9.7972,-0.0038,0.0018,0.0006000000000000001
3.4900872521813047,0.13799999999999998,-0.0034999999999999996,-9.7979,-0.0031,0.0021,0.0006000000000000001
3.500087502187555,0.123,-0.0125,-9.802299999999999,-0.0025,0.0021999999999999997,0.00039999999999999996
3.510087752193805,0.13190000000000002,-0.0243,-9.7959,-0.0033,0.0018,0.0007
3.520088002200055,0.1537,-0.030600000000000002,-9.7971,-0.0036,0.0014,0.00019999999999999998
3.5300882522063053,0.1301,-0.040799999999999996,-9.797,-0.0038,0.0014,0.00030000000000000003
3.5400885022125554,0.1488,-0.028999999999999998,-9.8058,-0.0026,0.0018,0.0006000000000000001
3.5500887522188056,0.1051,0.0019,-9.797500000000001,-0.0015,0.0018,0.0005
3.5600890022250558,0.1376,-0.0147,-9.789299999999999,-0.0023,0.0015,0.0005
3.570089252231306,0.14809999999999998,-0.0275,-9.7902,-0.0026,0.0010999999999999998,0.0005
3.580089502237556,0.13699999999999998,-0.0335,-9.7873,-0.0025,0.0015,0.00019999999999999998
3.590089752243806,0.131,-0.0438,-9.795,-0.003,0.002,0.0006000000000000001
3.6000900022500564,0.1327,-0.0072,-9.7806,-0.0013,0.0021,0.0006000000000000001
3.6100902522563065,0.1462,9.999999999999999e-05,-9.8302,-0.0026,0.002,0.00030000000000000003
3.6200905022625567,0.1171,-0.0241,-9.8089,-0.0031,0.0015999999999999999,0.0005
3.630090752268807,0.14909999999999998,-0.0142,-9.7952,-0.0031,0.0010999999999999998,9.999999999999999e-05
3.640091002275057,0.1366,-0.0322,-9.803,-0.0036999999999999997,0.0014,0.00039999999999999996
3.650091252281307,0.1313,-0.0252,-9.795399999999999,-0.0026,0.0015999999999999999,0.0007
3.6600915022875573,0.1298,9.999999999999999e-05,-9.8082,-0.002,0.0019,0.0006000000000000001
3.6700917522938075,0.1219,-0.0103,-9.8104,-0.0031,0.0012000000000000001,0.0006000000000000001
3.6800920023000576,0.16019999999999998,-0.0302,-9.811,-0.0034,0.0007999999999999999,0.00030000000000000003
3.6900922523063078,0.1289,-0.0254,-9.814599999999999,-0.0041,0.001,0.00039999999999999996
3.700092502312558,0.13899999999999998,-0.0171,-9.797799999999999,-0.0041,0.0015999999999999999,0.0005
3.710092752318808,0.1176,-0.0212,-9.8079,-0.0033,0.0019,0.0006000000000000001
3.7200930023250582,0.1363,-0.0155,-9.811599999999999,-0.0039,0.0015999999999999999,0.0005
3.7300932523313084,0.142,-0.0326,-9.8071,-0.0045000000000000005,0.0013,0.00039999999999999996
3.7400935023375586,0.1306,-0.0246,-9.7997,-0.0049,0.0014,0.00030000000000000003
3.7500937523438087,0.13240000000000002,-0.0275,-9.7947,-0.0057,0.0017,0.0006000000000000001
3.760094002350059,0.1226,-0.0062,-9.7932,-0.0050999999999999995,0.0015,0.0007
3.770094252356309,0.1307,-0.012799999999999999,-9.7944,-0.006,0.0014,0.0005
3.780094502362559,0.1362,-0.0339,-9.803099999999999,-0.0062,0.0012000000000000001,0.0007
3.7900947523688093,0.1364,-0.0171,-9.7832,-0.0066,0.0009,0.0005
3.8000950023750595,0.1417,-0.0449,-9.7981,-0.007499999999999999,0.0012000000000000001,0.00039999999999999996
3.8100952523813096,0.13470000000000001,-0.0371,-9.8063,-0.0060999999999999995,0.0014,0.0009
3.82009550238756,0.12459999999999999,-0.0007,-9.8049,-0.0057,0.0015999999999999999,0.0006000000000000001
3.83009575239381,0.135,-0.0095,-9.8135,-0.0068,0.0012000000000000001,0.0007999999999999999
3.8400960024000605,0.1289,-0.029300000000000003,-9.7848,-0.0073,0.0006000000000000001,0.0005
3.8500962524063107,0.1434,-0.039599999999999996,-9.796000000000001,-0.007899999999999999,0.001,0.0005
3.860096502412561,0.1379,-0.0477,-9.7867,-0.007499999999999999,0.0015999999999999999,0.0007999999999999999
3.870096752418811,0.12899999999999998,-0.0114,-9.8162,-0.0069,0.0018,0.0007999999999999999
3.880097002425061,0.11989999999999999,-0.0215,-9.8079,-0.0081,0.0015,0.0006000000000000001
3.8900972524313113,0.1417,-0.0484,-9.8073,-0.008799999999999999,0.0007999999999999999,0.0007
3.9000975024375615,0.12489999999999998,-0.0572,-9.7847,-0.0091,0.0007999999999999999,0.00039999999999999996
3.9100977524438116,0.1535,-0.0484,-9.812999999999999,-0.009000000000000001,0.0012000000000000001,0.0009
3.920098002450062,0.1116,-0.0205,-9.8087,-0.0077,0.0013,0.0007999999999999999
3.930098252456312,0.12340000000000001,-0.025799999999999997,-9.807,-0.0082,0.0010999999999999998,0.0009
3.940098502462562,0.1338,-0.0469,-9.8049,-0.0087,0.0007,0.0007999999999999999
3.9500987524688123,0.1404,-0.052700000000000004,-9.7851,-0.0087,0.0006000000000000001,0.0006000000000000001
3.9600990024750624,0.1507,-0.034999999999999996,-9.8102,-0.0091,0.001,0.0007999999999999999
3.9700992524813126,0.1256,-0.0397,-9.799900000000001,-0.0084,0.0015,0.0007999999999999999
3.9800995024875627,0.11939999999999999,-0.0505,-9.8065,-0.0081,0.0014,0.0007
3.990099752493813,0.1289,-0.052700000000000004,-9.7956,-0.007899999999999999,0.0010999999999999998,0.0009
4.000100002500063,0.1454,-0.037,-9.8051,-0.0077,0.0009,0.0005
4.010100252506313,0.128,-0.0584,-9.8004,-0.0084,0.001,0.0005
4.020100502512563,0.1415,-0.060899999999999996,-9.8084,-0.007499999999999999,0.0012000000000000001,0.0007999999999999999
4.0301007525188135,0.11349999999999999,-0.041800000000000004,-9.7972,-0.006999999999999999,0.0014,0.0005
4.040101002525064,0.1283,-0.0492,-9.8057,-0.008,0.001,0.0007999999999999999
4.050101252531314,0.1341,-0.060099999999999994,-9.7967,-0.0082,0.00039999999999999996,0.0006000000000000001
4.060101502537564,0.1465,-0.0702,-9.809099999999999,-0.0083,0.0005,0.00039999999999999996
4.070101752543814,0.1171,-0.0633,-9.7854,-0.0076,0.0009,0.001
4.080102002550064,0.12689999999999999,-0.042,-9.793,-0.0063999999999999994,0.001,0.0006000000000000001
4.090102252556314,0.1357,-0.041800000000000004,-9.8005,-0.0066,0.0010999999999999998,0.0007999999999999999
4.100102502562565,0.1161,-0.059199999999999996,-9.7955,-0.0067,0.0009,0.0007
4.110102752568815,0.147,-0.053,-9.7857,-0.0068,0.0005,0.0006000000000000001
4.120103002575065,0.1447,-0.0526,-9.806099999999999,-0.0077,0.0007999999999999999,0.0006000000000000001
4.130103252581315,0.1268,-0.0561,-9.8042,-0.0073,0.001,0.0007
4.140103502587565,0.1176,-0.030299999999999997,-9.799199999999999,-0.0066,0.0010999999999999998,0.0007999999999999999
4.150103752593815,0.12179999999999999,-0.041800000000000004,-9.796199999999999,-0.0069,0.0007,0.0007999999999999999
4.1601040026000655,0.1563,-0.0665,-9.7957,-0.0063999999999999994,0.00039999999999999996,0.0005
4.170104252606316,0.1245,-0.0721,-9.8034,-0.0071,0.0007,0.0006000000000000001
4.180104502612566,0.1281,-0.07519999999999999,-9.8082,-0.0058,0.0010999999999999998,0.0007999999999999999
4.190104752618816,0.1115,-0.0536,-9.8019,-0.0046,0.0009,0.0009
4.200105002625066,0.1283,-0.0514,-9.8049,-0.0049,0.0007,0.0007999999999999999
4.210105252631316,0.142,-0.0755,-9.810099999999998,-0.0050999999999999995,0.00019999999999999998,0.0007
4.2201055026375665,0.131,-0.0727,-9.802299999999999,-0.0048000000000000004,0.00039999999999999996,0.0006000000000000001
4.230105752643817,0.12719999999999998,-0.0585,-9.7958,-0.004399999999999999,0.0007,0.0007999999999999999
4.240106002650067,0.1142,-0.0513,-9.7814,-0.0036,0.0007,0.001
4.250106252656317,0.13799999999999998,-0.055099999999999996,-9.798399999999999,-0.0034,0.0007,0.0009
4.260106502662567,0.1263,-0.0681,-9.8025,-0.0034999999999999996,0.0005,0.0009
4.270106752668817,0.1345,-0.0631,-9.7887,-0.0038,0.00019999999999999998,0.0007
4.280107002675067,0.1465,-0.06899999999999999,-9.804400000000001,-0.0045000000000000005,0.0005,0.0007
4.2901072526813175,0.1242,-0.06620000000000001,-9.7976,-0.0031,0.0007999999999999999,0.001
4.300107502687568,0.11529999999999999,-0.0373,-9.7982,-0.0028,0.0007999999999999999,0.0007999999999999999
4.310107752693818,0.12869999999999998,-0.048799999999999996,-9.7972,-0.0039,0.0005,0.001
4.320108002700068,0.13470000000000001,-0.0711,-9.802299999999999,-0.0043,0.00019999999999999998,0.0006000000000000001
4.330108252706318,0.1417,-0.07029999999999999,-9.804,-0.0043,0.00039999999999999996,0.001
4.340108502712568,0.11429999999999998,-0.0686,-9.781099999999999,-0.003,0.0006000000000000001,0.0010999999999999998
4.3501087527188185,0.1348,-0.0499,-9.8015,-0.0021,0.0007999999999999999,0.0010999999999999998
4.360109002725069,0.124,-0.0554,-9.8088,-0.0028,0.0007,0.001
4.370109252731319,0.1248,-0.08739999999999999,-9.8054,-0.0028,0.00030000000000000003,0.001
4.380109502737569,0.13979999999999998,-0.06319999999999999,-9.8177,-0.0028,0.00019999999999999998,0.0007999999999999999
4.390109752743819,0.1313,-0.0713,-9.798399999999999,-0.003,0.00039999999999999996,0.0012000000000000001
4.400110002750069,0.1227,-0.0556,-9.8011,-0.0014,0.0005,0.001
4.410110252756319,0.11720000000000001,-0.050600000000000006,-9.796299999999999,-0.0015999999999999999,0.00039999999999999996,0.0012000000000000001
4.42011050276257,0.13290000000000002,-0.0656,-9.7951,-0.0015999999999999999,0.00019999999999999998,0.0012000000000000001
4.43011075276882,0.1443,-0.0717,-9.794899999999998,-0.0013,9.999999999999999e-05,0.001
4.44011100277507,0.1391,-0.07519999999999999,-9.8142,-0.001,0.00039999999999999996,0.0010999999999999998
4.45011125278132,0.11989999999999999,-0.0702,-9.8018,-0.0005,0.0006000000000000001,0.0014
4.46011150278757,0.1238,-0.0582,-9.807599999999999,0.0006000000000000001,0.0006000000000000001,0.0010999999999999998
4.47011175279382,0.1203,-0.0608,-9.8015,-9.999999999999999e-05,0.0005,0.0014
4.4801120028000705,0.1404,-0.0738,-9.798,9.999999999999999e-05,0.00039999999999999996,0.001
4.490112252806321,0.1337,-0.08360000000000001,-9.8051,-9.999999999999999e-05,0.0005,0.0010999999999999998
4.500112502812571,0.1371,-0.0732,-9.814,0.0007999999999999999,0.0009,0.0015
4.510112752818821,0.0901,-0.0393,-9.801400000000001,0.0017,0.0007999999999999999,0.0014
4.520113002825071,0.1352,-0.0475,-9.7919,0.0005,9.999999999999999e-05,0.0014
4.530113252831321,0.141,-0.0892,-9.8013,0.00030000000000000003,-9.999999999999999e-05,0.0010999999999999998
4.540113502837571,0.12340000000000001,-0.07629999999999999,-9.7913,9.999999999999999e-05,0.00019999999999999998,0.0012000000000000001
4.550113752843822,0.1216,-0.0759,-9.7902,-0.00039999999999999996,0.0006000000000000001,0.0014
4.560114002850072,0.1369,-0.054299999999999994,-9.806099999999999,0.0010999999999999998,0.0006000000000000001,0.0015
4.570114252856322,0.12049999999999998,-0.0417,-9.802,0.0009,0.0005,0.0013
4.580114502862572,0.12279999999999999,-0.0741,-9.796299999999999,9.999999999999999e-05,0.00019999999999999998,0.0014
4.590114752868822,0.1338,-0.0673,-9.7995,-9.999999999999999e-05,0.0,0.0012000000000000001
4.600115002875072,0.141,-0.0807,-9.7991,-0.00039999999999999996,0.0005,0.0012000000000000001
4.6101152528813225,0.1252,-0.07579999999999999,-9.7951,0.0007999999999999999,0.0009,0.0017
4.620115502887573,0.1156,-0.0481,-9.8114,0.0018,0.001,0.0014
4.630115752893823,0.1119,-0.0585,-9.8052,0.0010999999999999998,0.0006000000000000001,0.0015
4.640116002900073,0.12869999999999998,-0.0754,-9.7903,0.0010999999999999998,-9.999999999999999e-05,0.0013
4.650116252906323,0.13190000000000002,-0.0846,-9.7929,0.001,9.999999999999999e-05,0.0012000000000000001
4.660116502912573,0.1336,-0.0867,-9.8078,0.0017,0.0007999999999999999,0.0015
4.670116752918823,0.1111,-0.055999999999999994,-9.8071,0.003,0.001,0.0014
4.680117002925074,0.1253,-0.0604,-9.8209,0.0021999999999999997,0.0007,0.0014
4.690117252931324,0.1204,-0.07919999999999999,-9.8074,0.0021,-0.0,0.0014
4.700117502937574,0.1359,-0.0747,-9.790799999999999,0.0023,-0.00019999999999999998,0.001
4.710117752943824,0.1268,-0.075,-9.7968,0.0015,0.00030000000000000003,0.0014
4.720118002950074,0.11280000000000001,-0.06989999999999999,-9.7736,0.0028,0.0006000000000000001,0.0014
4.730118252956324,0.1317,-0.0484,-9.7752,0.0029,0.00039999999999999996,0.0015
4.7401185029625745,0.1176,-0.0707,-9.7898,0.0023,0.00030000000000000003,0.0014
4.750118752968825,0.1428,-0.0817,-9.799199999999999,0.0024000000000000002,0.00019999999999999998,0.001
4.760119002975075,0.1342,-0.0945,-9.812999999999999,0.0015999999999999999,0.0007,0.0010999999999999998
4.770119252981325,0.1286,-0.0987,-9.8079,0.0036999999999999997,0.0007,0.0012000000000000001
4.780119502987575,0.10690000000000001,-0.055999999999999994,-9.7966,0.005399999999999999,0.0006000000000000001,0.0012000000000000001
4.790119752993825,0.1103,-0.0667,-9.7785,0.0050999999999999995,0.0005,0.0010999999999999998
4.8001200030000755,0.1407,-0.0865,-9.7919,0.0055,0.00030000000000000003,0.0009
4.810120253006326,0.127,-0.079,-9.7863,0.0053,0.00039999999999999996,0.001
4.820120503012576,0.1227,-0.0672,-9.7926,0.0059,0.0005,0.0012000000000000001
4.830120753018826,0.11399999999999999,-0.053799999999999994,-9.7997,0.0069,0.00039999999999999996,0.0010999999999999998
4.840121003025076,0.1251,-0.0568,-9.8157,0.0060999999999999995,0.00019999999999999998,0.001
4.850121253031326,0.1103,-0.08549999999999999,-9.784099999999999,0.0056,-0.00030000000000000003,0.0007999999999999999
4.860121503037576,0.1377,-0.0825,-9.7779,0.0059,-0.0005,0.0007
4.8701217530438266,0.1311,-0.08739999999999999,-9.7886,0.0065,0.00030000000000000003,0.0007
4.880122003050077,0.1334,-0.0576,-9.7979,0.0076,0.0006000000000000001,0.001
4.890122253056327,0.11349999999999999,-0.0448,-9.8051,0.0073999999999999995,0.0007999999999999999,0.0007
4.900122503062577,0.1216,-0.0672,-9.7913,0.006999999999999999,0.00019999999999999998,0.0007
4.910122753068827,0.1367,-0.062200000000000005,-9.791,0.0067,-9.999999999999999e-05,0.0006000000000000001
4.920123003075077,0.1303,-0.0724,-9.7847,0.0063,0.00019999999999999998,0.0006000000000000001
4.9301232530813275,0.1257,-0.056400000000000006,-9.807699999999999,0.007499999999999999,0.0007999999999999999,0.0007999999999999999
4.940123503087578,0.10120000000000001,-0.0557,-9.7914,0.0081,0.0007999999999999999,0.0006000000000000001
4.950123753093828,0.1363,-0.060099999999999994,-9.8015,0.007499999999999999,0.00030000000000000003,0.0006000000000000001
4.960124003100078,0.11750000000000001,-0.0714,-9.7972,0.0078,-0.00019999999999999998,0.00039999999999999996
4.970124253106328,0.12669999999999998,-0.07039999999999999,-9.778,0.0082,-0.00019999999999999998,0.00030000000000000003
4.980124503112578,0.1307,-0.0759,-9.789499999999999,0.0089,0.00030000000000000003,0.0005
4.990124753118828,0.12359999999999999,-0.044,-9.789299999999999,0.009899999999999999,0.00039999999999999996,0.0006000000000000001
5.000125003125079,0.1188,-0.028699999999999996,-9.8024,0.0092,0.00030000000000000003,0.00039999999999999996
5.010125253131329,0.10959999999999999,-0.0476,-9.7805,0.008799999999999999,-0.00030000000000000003,0.00039999999999999996
5.020125503137579,0.1394,-0.0598,-9.780999999999999,0.0082,-0.0006000000000000001,0.00030000000000000003
5.030125753143829,0.1384,-0.0678,-9.800799999999999,0.0084,0.00019999999999999998,0.00030000000000000003
5.040126003150079,0.12069999999999999,-0.0509,-9.798399999999999,0.0093,0.0006000000000000001,0.0005
5.050126253156329,0.11349999999999999,-0.0351,-9.789499999999999,0.0093,0.0005,0.00030000000000000003
5.0601265031625795,0.1131,-0.0498,-9.7795,0.0091,-9.999999999999999e-05,0.00030000000000000003
5.07012675316883,0.15159999999999998,-0.046099999999999995,-9.7766,0.0086,-0.00019999999999999998,0.0
5.08012700317508,0.1213,-0.050100000000000006,-9.8001,0.0081,0.00030000000000000003,9.999999999999999e-05
5.09012725318133,0.11069999999999999,-0.0385,-9.7971,0.007899999999999999,0.00039999999999999996,0.00019999999999999998
5.10012750318758,0.1085,-0.0297,-9.789299999999999,0.008799999999999999,0.00019999999999999998,0.00019999999999999998
5.11012775319383,0.12639999999999998,-0.0348,-9.8033,0.0076,-0.0,0.00030000000000000003
5.12012800320008,0.1366,-0.0453,-9.7991,0.007499999999999999,-0.0005,9.999999999999999e-05
5.130128253206331,0.11019999999999999,-0.0444,-9.771,0.007499999999999999,-0.0006000000000000001,-0.0
5.140128503212581,0.1462,-0.0681,-9.7781,0.0077,0.0,9.999999999999999e-05
5.150128753218831,0.1167,-0.0472,-9.8035,0.0091,0.0005,9.999999999999999e-05
5.160129003225081,0.1149,-0.0277,-9.8072,0.0084,0.00030000000000000003,0.0
5.170129253231331,0.11789999999999999,-0.05109999999999999,-9.7971,0.0086,-0.00039999999999999996,-0.00030000000000000003
5.180129503237581,0.1331,-0.0464,-9.7768,0.0091,-0.0006000000000000001,-0.00019999999999999998
5.1901297532438315,0.1434,-0.0499,-9.7931,0.0086,0.00019999999999999998,-0.00030000000000000003
5.200130003250082,0.11789999999999999,-0.043399999999999994,-9.800799999999999,0.0095,0.0007,9.999999999999999e-05
5.210130253256332,0.1021,-0.0117,-9.7952,0.0101,0.0005,-0.00019999999999999998
5.220130503262582,0.12440000000000001,-0.0337,-9.7812,0.0093,-9.999999999999999e-05,-9.999999999999999e-05
5.230130753268832,0.12329999999999999,-0.050699999999999995,-9.7804,0.0093,-0.00039999999999999996,-0.00039999999999999996
5.240131003275082,0.1412,-0.0556,-9.8164,0.0087,9.999999999999999e-05,-0.00039999999999999996
5.2501312532813325,0.10679999999999999,-0.0398,-9.796299999999999,0.009600000000000001,0.00019999999999999998,-0.00019999999999999998
5.260131503287583,0.1183,-0.0046,-9.7829,0.0103,-9.999999999999999e-05,-0.00039999999999999996
5.270131753293833,0.1303,-0.0203,-9.7953,0.0091,-0.0,-0.0005
5.280132003300083,0.1137,-0.0504,-9.7882,0.009399999999999999,-0.00030000000000000003,-0.0005
5.290132253306333,0.12919999999999998,-0.029799999999999997,-9.7716,0.009399999999999999,-0.00019999999999999998,-0.0006000000000000001
5.300132503312583,0.1384,-0.0343,-9.802900000000001,0.0095,0.0,-0.00039999999999999996
5.310132753318833,0.1137,-0.0169,-9.806,0.010199999999999999,0.0006000000000000001,-0.0005
5.3201330033250835,0.10640000000000001,-0.0119,-9.795,0.010199999999999999,0.0005,-0.0005
5.330133253331334,0.11939999999999999,-0.0174,-9.789200000000001,0.01,-9.999999999999999e-05,-0.0006000000000000001
5.340133503337584,0.1387,-0.031100000000000003,-9.7764,0.009899999999999999,-0.00019999999999999998,-0.0009
5.350133753343834,0.12949999999999998,-0.0411,-9.787700000000001,0.009000000000000001,0.00019999999999999998,-0.0007999999999999999
5.360134003350084,0.11999999999999998,-0.008,-9.8019,0.0103,0.0005,-0.00039999999999999996
5.370134253356334,0.0973,0.0136,-9.790600000000001,0.0107,0.00039999999999999996,-0.0007999999999999999
5.3801345033625845,0.13899999999999998,0.0063999999999999994,-9.7997,0.0098,-0.0,-0.0005
5.390134753368835,0.11299999999999999,-0.0071,-9.7804,0.0092,-0.0005,-0.0007999999999999999
5.400135003375085,0.1251,-0.0215,-9.7873,0.0085,-0.0,-0.0007999999999999999
5.410135253381335,0.1304,-0.0050999999999999995,-9.809,0.0087,0.00039999999999999996,-0.00039999999999999996
5.420135503387585,0.1122,0.0104,-9.782,0.0098,0.00039999999999999996,-0.0007999999999999999
5.430135753393835,0.12049999999999998,-0.0009,-9.800699999999999,0.0085,0.00030000000000000003,-0.0006000000000000001
5.440136003400085,0.11789999999999999,-0.0197,-9.7804,0.0087,-0.00019999999999999998,-0.0007999999999999999
5.450136253406336,0.128,-0.0062,-9.7744,0.0086,-0.00019999999999999998,-0.0009
5.460136503412586,0.1362,-0.0186,-9.793899999999999,0.0082,0.00030000000000000003,-0.0007
5.470136753418836,0.10679999999999999,-0.0063999999999999994,-9.7916,0.009399999999999999,0.0006000000000000001,-0.0007
5.480137003425086,0.1056,0.013699999999999999,-9.7944,0.0091,0.0005,-0.0007
5.490137253431336,0.11969999999999999,0.006,-9.7864,0.0086,-9.999999999999999e-05,-0.0006000000000000001
5.500137503437586,0.1311,0.0062,-9.7832,0.0081,-0.00039999999999999996,-0.001
5.5101377534438365,0.1394,-0.0073,-9.786200000000001,0.0066,-0.0,-0.0009
5.520138003450087,0.1211,-0.0095,-9.789,0.006999999999999999,0.0006000000000000001,-0.0006000000000000001
5.530138253456337,0.0964,0.0112,-9.7834,0.008,0.0006000000000000001,-0.0007
5.540138503462587,0.11739999999999999,0.0156,-9.7974,0.0071,0.00030000000000000003,-0.0007
5.550138753468837,0.12359999999999999,-0.004699999999999999,-9.7931,0.0071,-0.00030000000000000003,-0.001
5.560139003475087,0.1276,0.0012000000000000001,-9.7816,0.0069,-0.00030000000000000003,-0.001
5.570139253481337,0.1281,9.999999999999999e-05,-9.792399999999999,0.0071,0.00019999999999999998,-0.0009
5.580139503487588,0.1108,0.0317,-9.7913,0.007899999999999999,0.00039999999999999996,-0.0007
5.590139753493838,0.11750000000000001,0.029300000000000003,-9.7814,0.0069,0.00030000000000000003,-0.0009
5.600140003500088,0.1221,0.0018,-9.792399999999999,0.0067,9.999999999999999e-05,-0.0007999999999999999
5.610140253506338,0.11850000000000001,0.0081,-9.7799,0.0063,-9.999999999999999e-05,-0.001
5.620140503512588,0.12739999999999999,0.0036,-9.7817,0.0059,0.00039999999999999996,-0.0007999999999999999
5.630140753518838,0.12539999999999998,0.0132,-9.7971,0.0063,0.0006000000000000001,-0.0007
5.6401410035250885,0.101,0.025500000000000002,-9.7849,0.0063999999999999994,0.00039999999999999996,-0.0009
5.650141253531339,0.1183,0.0166,-9.7918,0.0058,9.999999999999999e-05,-0.0007999999999999999
5.660141503537589,0.1291,0.0092,-9.7933,0.005399999999999999,-9.999999999999999e-05,-0.0010999999999999998
5.670141753543839,0.1166,-0.0050999999999999995,-9.792,0.004699999999999999,-0.0,-0.0010999999999999998
5.680142003550089,0.12290000000000001,0.017599999999999998,-9.7833,0.005399999999999999,0.00030000000000000003,-0.0006000000000000001
5.690142253556339,0.1047,0.029500000000000002,-9.787899999999999,0.0066,0.00039999999999999996,-0.0009
5.7001425035625894,0.12459999999999999,0.0288,-9.7784,0.0059,0.00030000000000000003,-0.0007
5.71014275356884,0.12329999999999999,0.0063,-9.779599999999999,0.005399999999999999,0.0,-0.001
5.72014300357509,0.11989999999999999,0.0105,-9.7755,0.0050999999999999995,-0.0,-0.001
5.73014325358134,0.12589999999999998,0.0089,-9.7953,0.0045000000000000005,0.00030000000000000003,-0.0007999999999999999
5.74014350358759,0.1023,0.0328,-9.779,0.0056,0.00019999999999999998,-0.0009
5.75014375359384,0.12359999999999999,0.038,-9.7774,0.004699999999999999,0.0,-0.0009
5.76014400360009,0.12019999999999999,0.007499999999999999,-9.7729,0.0046,9.999999999999999e-05,-0.001
5.7701442536063405,0.12069999999999999,0.0186,-9.7668,0.004399999999999999,0.0,-0.0009
5.780144503612591,0.12969999999999998,0.0025,-9.7901,0.0041,0.00019999999999999998,-0.0009
5.790144753618841,0.11919999999999999,0.0338,-9.7861,0.0055,0.00030000000000000003,-0.0007
5.800145003625091,0.1043,0.037899999999999996,-9.7953,0.0053,0.0005,-0.0010999999999999998
5.810145253631341,0.1142,0.027,-9.7897,0.0043,0.0,-0.0006000000000000001
5.820145503637591,0.11750000000000001,0.0326,-9.767000000000001,0.004399999999999999,-0.00030000000000000003,-0.0010999999999999998
5.8301457536438415,0.13879999999999998,0.014499999999999999,-9.7719,0.0036999999999999997,-0.00019999999999999998,-0.0009
5.840146003650092,0.1211,0.0107,-9.7929,0.0042,0.0005,-0.0009
5.850146253656342,0.0886,0.0225,-9.7819,0.0050999999999999995,0.0005,-0.0007
5.860146503662592,0.1352,0.033,-9.7902,0.004399999999999999,-0.0,-0.0009
5.870146753668842,0.1117,0.0221,-9.7935,0.0042,-0.0005,-0.001
5.880147003675092,0.1289,0.0095,-9.7704,0.0034999999999999996,-0.00039999999999999996,-0.0013
5.890147253681342,0.1359,-0.0017,-9.793,0.0036,9.999999999999999e-05,-0.0009
5.9001475036875926,0.10089999999999999,0.0435,-9.7783,0.004699999999999999,0.00039999999999999996,-0.0007999999999999999
5.910147753693843,0.1232,0.0473,-9.7951,0.0034999999999999996,0.00039999999999999996,-0.001
5.920148003700093,0.1087,0.017,-9.7829,0.0034999999999999996,-0.0,-0.0007999999999999999
5.930148253706343,0.12949999999999998,0.0273,-9.7923,0.0028,-0.00030000000000000003,-0.0012000000000000001
5.940148503712593,0.12539999999999998,0.0085,-9.7832,0.0021,0.0,-0.001
5.950148753718843,0.1126,0.033100000000000004,-9.781099999999999,0.003,9.999999999999999e-05,-0.0009
5.9601490037250935,0.1077,0.0457,-9.7789,0.003,0.00019999999999999998,-0.0010999999999999998
5.970149253731344,0.1151,0.0362,-9.794799999999999,0.0018,0.00030000000000000003,-0.0009
5.980149503737594,0.1225,0.025,-9.79,0.0010999999999999998,-9.999999999999999e-05,-0.0013
5.990149753743844,0.13,0.0197,-9.799199999999999,0.00039999999999999996,9.999999999999999e-05,-0.0012000000000000001
6.000150003750094,0.1149,0.0355,-9.784099999999999,0.0005,0.00030000000000000003,-0.0007999999999999999
6.010150253756344,0.1055,0.061200000000000004,-9.791,0.0006000000000000001,0.00039999999999999996,-0.001
6.020150503762594,0.1144,0.0388,-9.7943,-0.0006000000000000001,0.00019999999999999998,-0.001
6.030150753768845,0.1188,0.009399999999999999,-9.7903,-0.0007999999999999999,-9.999999999999999e-05,-0.0010999999999999998
6.040151003775095,0.1327,0.029300000000000003,-9.7677,-0.001,-0.0,-0.0013
6.050151253781345,0.122,0.0052,-9.7979,-0.0015999999999999999,0.0006000000000000001,-0.0009
6.060151503787595,0.1045,0.0373,-9.794500000000001,0.00019999999999999998,0.0005,-0.0009
6.070151753793845,0.12390000000000001,0.055999999999999994,-9.809,-0.0012000000000000001,0.00039999999999999996,-0.0010999999999999998
6.080152003800095,0.0982,0.0342,-9.7752,-0.0015999999999999999,0.0,-0.001
6.0901522538063455,0.13799999999999998,0.030699999999999998,-9.779,-0.0023,-9.999999999999999e-05,-0.0010999999999999998
6.100152503812596,0.1288,0.023,-9.780999999999999,-0.0031999999999999997,0.00039999999999999996,-0.0009
6.110152753818846,0.12049999999999998,0.0475,-9.799299999999999,-0.0026999999999999997,0.0007999999999999999,-0.0007999999999999999
6.120153003825096,0.0897,0.0477,-9.7852,-0.0028,0.0007,-0.0009
6.130153253831346,0.1215,0.0325,-9.7799,-0.0036,0.00019999999999999998,-0.0007999999999999999
6.140153503837596,0.13929999999999998,0.0322,-9.7853,-0.0039,-0.0,-0.0010999999999999998
6.150153753843846,0.1126,0.0207,-9.7807,-0.004699999999999999,0.00039999999999999996,-0.001
6.160154003850097,0.1149,0.018000000000000002,-9.7904,-0.0048000000000000004,0.0007,-0.0009
6.170154253856347,0.1026,0.0467,-9.784099999999999,-0.004399999999999999,0.0006000000000000001,-0.0007999999999999999
6.180154503862597,0.1168,0.044,-9.7898,-0.005399999999999999,0.00039999999999999996,-0.0009
6.190154753868847,0.11750000000000001,0.019,-9.7848,-0.0057,-0.0,-0.0010999999999999998
6.200155003875097,0.13979999999999998,0.014999999999999998,-9.7781,-0.0067,9.999999999999999e-05,-0.0010999999999999998
6.210155253881347,0.1097,0.0117,-9.786999999999999,-0.0067,0.0006000000000000001,-0.0009
6.2201555038875975,0.10839999999999998,0.034,-9.7767,-0.0056,0.0007,-0.0009
6.230155753893848,0.11329999999999998,0.0424,-9.7944,-0.0063,0.0007999999999999999,-0.0007999999999999999
6.240156003900098,0.11900000000000001,0.012899999999999998,-9.7973,-0.0063,0.0006000000000000001,-0.001
6.250156253906348,0.1323,0.0173,-9.7875,-0.0069,0.00019999999999999998,-0.0010999999999999998
6.260156503912598,0.121,0.0085,-9.7897,-0.0077,0.0005,-0.0010999999999999998
6.270156753918848,0.11429999999999998,0.0104,-9.7987,-0.0071,0.0009,-0.001
6.2801570039250985,0.10939999999999998,0.0262,-9.795399999999999,-0.0068,0.0013,-0.001
6.290157253931349,0.1147,0.0117,-9.8003,-0.0073,0.0009,-0.0010999999999999998
6.300157503937599,0.12459999999999999,0.0063999999999999994,-9.7965,-0.0076,0.00019999999999999998,-0.0013
6.310157753943849,0.10169999999999998,0.0116,-9.7774,-0.0076,0.00039999999999999996,-0.0013
6.320158003950099,0.1252,0.0101,-9.7876,-0.0077,0.0007,-0.0010999999999999998
6.330158253956349,0.1204,0.0184,-9.7913,-0.0067,0.001,-0.0010999999999999998
6.340158503962599,0.1115,0.0202,-9.8026,-0.0071,0.0007999999999999999,-0.0012000000000000001
6.3501587539688495,0.11770000000000001,0.015899999999999997,-9.7853,-0.0073,0.00039999999999999996,-0.0010999999999999998
6.3601590039751,0.1208,0.0205,-9.7795,-0.0078,0.0005,-0.0013
6.37015925398135,0.1337,-0.0131,-9.7842,-0.0083,0.001,-0.0013
6.3801595039876,0.12049999999999998,0.0206,-9.796000000000001,-0.007499999999999999,0.0013,-0.001
6.39015975399385,0.1021,0.025799999999999997,-9.7882,-0.0072,0.0015,-0.0014
6.4001600040001,0.1217,0.013300000000000001,-9.7822,-0.0073999999999999995,0.0010999999999999998,-0.0012000000000000001
6.4101602540063505,0.135,-0.008,-9.7905,-0.0076,0.0009,-0.0015999999999999999
6.420160504012601,0.1158,-0.008,-9.7953,-0.007899999999999999,0.001,-0.0014
6.430160754018851,0.1149,0.0185,-9.7953,-0.0076,0.0013,-0.0012000000000000001
6.440161004025101,0.0924,0.0228,-9.7831,-0.0072,0.0010999999999999998,-0.0012000000000000001
6.450161254031351,0.1349,0.0206,-9.7938,-0.0084,0.0009,-0.0013
6.460161504037601,0.1296,-0.0045000000000000005,-9.7932,-0.0084,0.0007999999999999999,-0.0015
6.470161754043851,0.0942,-0.0093,-9.7861,-0.0084,0.0009,-0.0013
6.480162004050102,0.1263,0.0055,-9.7848,-0.007899999999999999,0.0010999999999999998,-0.0012000000000000001
6.490162254056352,0.1105,0.0067,-9.789499999999999,-0.0065,0.0014,-0.0010999999999999998
6.500162504062602,0.12689999999999999,0.0211,-9.800699999999999,-0.006999999999999999,0.0015,-0.0012000000000000001
6.510162754068852,0.109,-0.0066,-9.7926,-0.0067,0.0013,-0.0014
6.520163004075102,0.12019999999999999,-0.012,-9.779300000000001,-0.0071,0.0010999999999999998,-0.0015999999999999999
6.530163254081352,0.11750000000000001,-0.0087,-9.7863,-0.007499999999999999,0.0014,-0.0014
6.5401635040876025,0.1095,0.0023,-9.7935,-0.0062,0.0017,-0.0014
6.550163754093853,0.1201,0.014100000000000001,-9.7942,-0.0062,0.0015999999999999999,-0.0014
6.560164004100103,0.1112,-0.0093,-9.788499999999999,-0.0065,0.0014,-0.0014
6.570164254106353,0.12689999999999999,-0.0167,-9.7833,-0.0063999999999999994,0.001,-0.0015999999999999999
6.580164504112603,0.12390000000000001,-0.0191,-9.7931,-0.0066,0.0013,-0.0015
6.590164754118853,0.1087,0.001,-9.796100000000001,-0.0056,0.0017,-0.0010999999999999998
6.600165004125103,0.0997,0.006999999999999999,-9.782399999999999,-0.0052,0.0017,-0.0015
6.610165254131354,0.1232,-0.0024000000000000002,-9.808,-0.0063999999999999994,0.0015,-0.0013
6.620165504137604,0.11869999999999999,-0.004699999999999999,-9.799900000000001,-0.0067,0.0010999999999999998,-0.0017
6.630165754143854,0.107,-0.0134,-9.7882,-0.0066,0.0013,-0.0019
6.640166004150104,0.1152,-0.0139,-9.7847,-0.0065,0.0019,-0.0014
6.650166254156354,0.1158,9.999999999999999e-05,-9.7827,-0.0053,0.0019,-0.0017
6.660166504162604,0.1129,0.0028,-9.8057,-0.0059,0.002,-0.0015
6.6701667541688545,0.1105,-0.00019999999999999998,-9.78,-0.005399999999999999,0.0015,-0.0015
6.680167004175105,0.1204,-0.0013,-9.781099999999999,-0.0062,0.0015999999999999999,-0.0018
6.690167254181355,0.1248,-0.0301,-9.7947,-0.0060999999999999995,0.002,-0.0014
6.700167504187605,0.1048,0.0119,-9.8036,-0.0053,0.0021999999999999997,-0.0012000000000000001
6.710167754193855,0.106,0.0183,-9.8042,-0.0057,0.0021,-0.0015
6.720168004200105,0.117,-0.00019999999999999998,-9.7853,-0.0057,0.0014,-0.0014
6.7301682542063554,0.1253,-0.0231,-9.7792,-0.0062,0.0012000000000000001,-0.0018
6.740168504212606,0.11349999999999999,-0.0348,-9.7842,-0.0059,0.0017,-0.0015
6.750168754218856,0.10590000000000001,-0.005,-9.7813,-0.004699999999999999,0.0021999999999999997,-0.0012000000000000001
6.760169004225106,0.10709999999999999,0.010799999999999999,-9.7965,-0.004,0.0023,-0.0014
6.770169254231356,0.10679999999999999,-0.0071,-9.7946,-0.0048000000000000004,0.0019,-0.0013
6.780169504237606,0.1245,-0.018000000000000002,-9.798,-0.0050999999999999995,0.0015999999999999999,-0.0015999999999999999
6.790169754243856,0.11230000000000001,-0.028499999999999998,-9.7844,-0.0052,0.0018,-0.0015999999999999999
6.8001700042501065,0.12229999999999999,-0.027,-9.7875,-0.004399999999999999,0.0024000000000000002,-0.0013
6.810170254256357,0.0865,-0.0089,-9.775,-0.003,0.0024000000000000002,-0.0012000000000000001
6.820170504262607,0.12279999999999999,-0.0034999999999999996,-9.8042,-0.0036999999999999997,0.0024000000000000002,-0.0012000000000000001
6.830170754268857,0.10269999999999999,-0.022,-9.7966,-0.0034,0.002,-0.0014
6.840171004275107,0.10779999999999999,-0.020399999999999998,-9.7848,-0.0036,0.0018,-0.0015
6.850171254281357,0.1243,-0.037,-9.793899999999999,-0.0036,0.0021,-0.0014
6.8601715042876075,0.1052,-0.017499999999999998,-9.7944,-0.0023,0.0023,-0.0014
6.870171754293858,0.0995,-0.0125,-9.7898,-0.0021,0.0023,-0.0014
6.880172004300108,0.1105,-0.0161,-9.790799999999999,-0.002,0.002,-0.0014
6.890172254306358,0.12329999999999999,-0.025799999999999997,-9.7917,-0.0026999999999999997,0.0019,-0.0018
6.900172504312608,0.12049999999999998,-0.0475,-9.8001,-0.0026,0.0024000000000000002,-0.0015
6.910172754318858,0.10660000000000001,-0.0105,-9.8009,-0.0015999999999999999,0.0026999999999999997,-0.0013
6.920173004325108,0.0951,-0.0026999999999999997,-9.7903,-0.0007999999999999999,0.0026999999999999997,-0.0015
6.930173254331359,0.1186,-0.019,-9.795399999999999,-0.0009,0.0023,-0.0012000000000000001
6.940173504337609,0.1132,-0.0322,-9.787999999999998,-0.0007999999999999999,0.0021,-0.0018
6.950173754343859,0.1109,-0.0388,-9.7915,-0.001,0.0024000000000000002,-0.0015
6.960174004350109,0.1028,-0.018699999999999998,-9.7807,-0.0,0.0026999999999999997,-0.0013
6.970174254356359,0.1033,-0.0086,-9.791,0.0012000000000000001,0.0026,-0.0015999999999999999
6.980174504362609,0.1132,-0.0238,-9.799,0.0005,0.0026999999999999997,-0.0015
6.9901747543688595,0.1047,-0.0277,-9.799299999999999,0.001,0.0024000000000000002,-0.0015999999999999999
7.00017500437511,0.1033,-0.019200000000000002,-9.7917,0.00039999999999999996,0.0021999999999999997,-0.0018
7.01017525438136,0.11,-0.039599999999999996,-9.7973,0.001,0.0026,-0.0015
7.02017550438761,0.10629999999999999,-0.0052,-9.7874,0.0029,0.0026999999999999997,-0.0015999999999999999
7.03017575439386,0.1105,0.00039999999999999996,-9.7833,0.002,0.0028,-0.0015
7.04017600440011,0.10389999999999999,-0.0254,-9.779599999999999,0.0023,0.0026,-0.0015
7.05017625440636,0.11349999999999999,-0.017,-9.7848,0.0017,0.0026,-0.0017
7.060176504412611,0.11529999999999999,-0.0327,-9.8027,0.0012000000000000001,0.003,-0.0014
7.070176754418861,0.1186,0.0034,-9.8215,0.002,0.0031,-0.0013
7.080177004425111,0.0878,0.0082,-9.8079,0.0018,0.003,-0.0018
7.090177254431361,0.0977,-0.026099999999999998,-9.7623,0.0015999999999999999,0.0025,-0.0015999999999999999
7.100177504437611,0.1303,-0.036000000000000004,-9.7775,0.0015999999999999999,0.0024000000000000002,-0.0019
7.110177754443861,0.1006,-0.0229,-9.8087,0.0013,0.0031,-0.0015999999999999999
7.1201780044501115,0.0994,-0.014100000000000001,-9.8015,0.0015,0.0033,-0.0015
7.130178254456362,0.0914,0.0034999999999999996,-9.799900000000001,0.0025,0.0029,-0.0015999999999999999
7.140178504462612,0.10729999999999999,-0.010199999999999999,-9.796100000000001,0.001,0.0026999999999999997,-0.0017
7.150178754468862,0.12069999999999999,-0.027,-9.797500000000001,0.0010999999999999998,0.0026,-0.0018
7.160179004475112,0.09269999999999999,-0.0193,-9.7845,0.00039999999999999996,0.0028,-0.0018
7.170179254481362,0.11850000000000001,-0.0161,-9.7928,0.00019999999999999998,0.0031999999999999997,-0.0015
7.180179504487612,0.08209999999999999,0.006999999999999999,-9.7842,0.0015,0.0034,-0.0015
7.190179754493863,0.1137,0.0062,-9.7883,9.999999999999999e-05,0.0034,-0.0015999999999999999
7.200180004500113,0.10289999999999999,-0.0246,-9.7896,-0.00039999999999999996,0.003,-0.0015999999999999999
7.210180254506363,0.11349999999999999,-0.0305,-9.8012,-0.0007999999999999999,0.0029,-0.0018
7.220180504512613,0.0984,-0.0235,-9.7827,-0.0007,0.0031999999999999997,-0.0015999999999999999
7.230180754518863,0.0997,0.0162,-9.7861,0.00019999999999999998,0.0031999999999999997,-0.0014
7.240181004525113,0.0929,0.0223,-9.7887,-0.0006000000000000001,0.0029,-0.0017
7.2501812545313635,0.0961,-0.026099999999999998,-9.7764,-0.0012000000000000001,0.0026,-0.0017
7.260181504537614,0.11349999999999999,-0.024499999999999997,-9.7725,-0.0013,0.0024000000000000002,-0.0018
7.270181754543864,0.1214,-0.0371,-9.814499999999999,-0.0018,0.0033,-0.0019
7.280182004550114,0.09309999999999999,-0.017599999999999998,-9.8021,-0.00039999999999999996,0.0034999999999999996,-0.0015
7.290182254556364,0.0833,-0.0041,-9.7907,0.0005,0.0033,-0.0017
7.300182504562614,0.10139999999999999,0.003,-9.7912,-0.0009,0.003,-0.0014
7.3101827545688645,0.11280000000000001,-0.0045000000000000005,-9.783999999999999,-0.0021999999999999997,0.0028,-0.0018
7.320183004575115,0.10319999999999999,-0.0254,-9.780999999999999,-0.0031,0.003,-0.0019
7.330183254581365,0.107,-0.024399999999999998,-9.798,-0.0028,0.0034,-0.0014
7.340183504587615,0.0791,-0.008799999999999999,-9.785499999999999,-0.0013,0.0034,-0.0014
7.350183754593865,0.11950000000000001,0.004,-9.8095,-0.0023,0.003,-0.0015
7.360184004600115,0.1003,-0.0167,-9.7902,-0.0021,0.0025,-0.0018
7.370184254606365,0.089,-0.027099999999999996,-9.779300000000001,-0.0026999999999999997,0.0026,-0.0018
7.3801845046126155,0.10289999999999999,-0.0279,-9.7775,-0.0026999999999999997,0.003,-0.0015
7.390184754618866,0.1104,0.0023,-9.7936,-0.0017,0.0034,-0.0015
7.400185004625116,0.093,0.0081,-9.8082,-0.0021999999999999997,0.0034999999999999996,-0.0015
7.410185254631366,0.0896,-0.0161,-9.7839,-0.0025,0.0026999999999999997,-0.0015999999999999999
7.420185504637616,0.11549999999999999,-0.0219,-9.7898,-0.0031999999999999997,0.0025,-0.0018
7.430185754643866,0.0991,-0.02,-9.779599999999999,-0.0034999999999999996,0.0029,-0.0015
7.4401860046501165,0.1015,0.0015,-9.797699999999999,-0.003,0.0033,-0.0013
7.450186254656367,0.0775,-0.0060999999999999995,-9.787899999999999,-0.0026999999999999997,0.0034,-0.0013
7.460186504662617,0.1049,-0.0174,-9.7884,-0.0033,0.0031,-0.0013
7.470186754668867,0.11349999999999999,-0.039,-9.7927,-0.0036999999999999997,0.0026999999999999997,-0.0017
7.480187004675117,0.0945,-0.031,-9.788499999999999,-0.0042,0.0026999999999999997,-0.0015
7.490187254681367,0.0961,-0.0156,-9.7994,-0.0039,0.0031999999999999997,-0.0014
7.500187504687617,0.0781,0.0012000000000000001,-9.7925,-0.0028,0.0031,-0.0014
7.510187754693868,0.0967,-0.0076,-9.7913,-0.0041,0.0029,-0.0014
7.520188004700118,0.104,-0.0286,-9.787999999999998,-0.004399999999999999,0.0024000000000000002,-0.0017
7.530188254706368,0.0886,-0.037899999999999996,-9.7843,-0.005,0.0025,-0.0015999999999999999
7.540188504712618,0.11950000000000001,-0.0369,-9.7958,-0.0045000000000000005,0.0031,-0.0013
7.550188754718868,0.07919999999999999,-0.0091,-9.8036,-0.0036999999999999997,0.0031999999999999997,-0.0014
7.560189004725118,0.0982,-0.0213,-9.796299999999999,-0.0039,0.0031,-0.0014
7.5701892547313685,0.0824,-0.0213,-9.794500000000001,-0.0039,0.0026999999999999997,-0.0014
7.580189504737619,0.1095,-0.0414,-9.7799,-0.004699999999999999,0.0025,-0.0018
7.590189754743869,0.1147,-0.0528,-9.8063,-0.004399999999999999,0.003,-0.0015
7.600190004750119,0.0713,-0.0186,-9.7859,-0.0033,0.0031999999999999997,-0.0015
7.610190254756369,0.0866,-0.0132,-9.7981,-0.0034,0.003,-0.0015999999999999999
7.620190504762619,0.0967,-0.0248,-9.7882,-0.0034,0.0026999999999999997,-0.0013
7.630190754768869,0.1167,-0.0229,-9.7868,-0.0039,0.0024000000000000002,-0.0015999999999999999
7.64019100477512,0.0972,-0.017499999999999998,-9.8051,-0.005,0.0026999999999999997,-0.0013
7.65019125478137,0.0863,-0.0062,-9.7937,-0.004699999999999999,0.0026999999999999997,-0.0012000000000000001
7.66019150478762,0.0828,0.0007999999999999999,-9.795,-0.0043,0.0026,-0.0014
7.67019175479387,0.0953,-0.0189,-9.7955,-0.0056,0.0026999999999999997,-0.0012000000000000001
7.680192004800121,0.0919,-0.0426,-9.780800000000001,-0.0059,0.0026,-0.0015999999999999999
7.690192254806371,0.1092,-0.0448,-9.7976,-0.0063999999999999994,0.0029,-0.0014
7.700192504812621,0.091,-0.028699999999999996,-9.8004,-0.005399999999999999,0.0031,-0.0013
7.710192754818872,0.0786,-0.0060999999999999995,-9.778,-0.0043,0.0031,-0.0013
7.720193004825122,0.0974,-0.0201,-9.807,-0.0057,0.0029,-0.0012000000000000001
7.730193254831372,0.0857,-0.047,-9.7912,-0.006,0.0024000000000000002,-0.0013
7.740193504837622,0.09799999999999999,-0.044,-9.7857,-0.0060999999999999995,0.0023,-0.0014
7.750193754843872,0.096,-0.0552,-9.7971,-0.0053,0.0028,-0.0010999999999999998
7.760194004850122,0.0823,-0.0358,-9.7998,-0.0033,0.0026999999999999997,-0.001
7.7701942548563725,0.09430000000000001,-0.0375,-9.8025,-0.0029,0.0026999999999999997,-0.0013
7.780194504862623,0.08209999999999999,-0.0452,-9.789100000000001,-0.002,0.0023,-0.001
7.790194754868873,0.10169999999999998,-0.0413,-9.7803,-0.0021,0.0021999999999999997,-0.0015
7.800195004875123,0.10909999999999999,-0.0726,-9.8117,-0.0021999999999999997,0.0028,-0.0013
7.810195254881373,0.08059999999999999,-0.0393,-9.803,-0.00030000000000000003,0.0031999999999999997,-0.0010999999999999998
7.820195504887623,0.0839,-0.0206,-9.7973,0.00030000000000000003,0.0028,-0.0014
7.830195754893873,0.0955,-0.0373,-9.79,0.00039999999999999996,0.0023,-0.0010999999999999998
7.840196004900124,0.1051,-0.0496,-9.7929,0.00030000000000000003,0.0023,-0.0014
7.850196254906374,0.0857,-0.0412,-9.8139,-0.00030000000000000003,0.0026999999999999997,-0.0013
7.860196504912624,0.07919999999999999,-0.028699999999999996,-9.7819,0.00019999999999999998,0.0026,-0.0009
7.870196754918874,0.092,-0.0106,-9.803,0.0007,0.0028,-0.001
7.880197004925124,0.0833,-0.0301,-9.804499999999999,-0.0006000000000000001,0.0025,-0.0012000000000000001
7.890197254931374,0.0928,-0.0494,-9.7974,-0.0006000000000000001,0.0021,-0.0010999999999999998
7.9001975049376245,0.0921,-0.0504,-9.7998,-0.0012000000000000001,0.0021999999999999997,-0.0013
7.910197754943875,0.0897,-0.037599999999999995,-9.8035,-0.0007999999999999999,0.0026,-0.0009
7.920198004950125,0.0772,-0.018799999999999997,-9.7804,0.0007,0.0026,-0.0012000000000000001
7.930198254956375,0.1016,-0.0178,-9.809199999999999,-0.00030000000000000003,0.0026,-0.0012000000000000001
7.940198504962625,0.0756,-0.0642,-9.7983,-0.0005,0.0024000000000000002,-0.0013
7.950198754968875,0.0928,-0.0421,-9.797500000000001,-0.0006000000000000001,0.0024000000000000002,-0.0012000000000000001
7.9601990049751254,0.097,-0.040799999999999996,-9.7951,-0.001,0.0026999999999999997,-0.001
7.970199254981376,0.0854,-0.0186,-9.8069,-9.999999999999999e-05,0.0026999999999999997,-0.0009
7.980199504987626,0.07569999999999999,-0.012,-9.801400000000001,-0.001,0.0026,-0.0009
7.990199754993876,0.0842,-0.0513,-9.782,-0.0012000000000000001,0.0023,-0.001
8.000200005000126,0.1137,-0.0479,-9.8049,-0.0012000000000000001,0.002,-0.0010999999999999998
8.010200255006376,0.07780000000000001,-0.0691,-9.8059,-0.0012000000000000001,0.0025,-0.0014
8.020200505012626,0.0896,-0.0608,-9.8056,0.0007,0.0026999999999999997,-0.0010999999999999998
8.030200755018877,0.061799999999999994,-0.0297,-9.8001,0.0019,0.0025,-0.0010999999999999998
8.040201005025127,0.0901,-0.0412,-9.7943,0.0015,0.0023,-0.0010999999999999998
8.050201255031377,0.1008,-0.0358,-9.8097,0.0015999999999999999,0.002,-0.0012000000000000001
8.060201505037627,0.0901,-0.0471,-9.807699999999999,0.0006000000000000001,0.0024000000000000002,-0.0014
8.070201755043877,0.0921,-0.0395,-9.819999999999999,0.0014,0.003,-0.0009
8.080202005050127,0.052,-0.0212,-9.7901,0.0024000000000000002,0.0026999999999999997,-0.001
8.090202255056377,0.10729999999999999,-0.047,-9.811300000000001,0.0021,0.0024000000000000002,-0.0010999999999999998
8.100202505062628,0.0849,-0.05739999999999999,-9.8041,0.0024000000000000002,0.0021999999999999997,-0.001
8.110202755068878,0.0899,-0.048799999999999996,-9.812899999999999,0.0021999999999999997,0.0026,-0.0013
8.120203005075128,0.0842,-0.0415,-9.8034,0.0023,0.0026,-0.001
8.130203255081378,0.0784,-0.0168,-9.8018,0.0031999999999999997,0.0026999999999999997,-0.001
8.140203505087628,0.0884,-0.01,-9.813099999999999,0.0024000000000000002,0.0025,-0.001
8.150203755093878,0.07569999999999999,-0.026899999999999997,-9.8003,0.0015,0.0023,-0.0012000000000000001
8.160204005100129,0.0998,-0.046099999999999995,-9.786999999999999,0.0010999999999999998,0.0021,-0.0012000000000000001
8.170204255106379,0.0946,-0.0619,-9.803799999999999,0.0015,0.0025,-0.001
8.180204505112629,0.09319999999999999,-0.0268,-9.84,0.0021999999999999997,0.0031,-0.0007999999999999999
8.190204755118879,0.054,-0.0191,-9.8011,0.0029,0.0029,-0.0009
8.20020500512513,0.1,-0.0273,-9.7944,0.0026999999999999997,0.0021,-0.001
8.21020525513138,0.09,-0.052,-9.7831,0.0023,0.002,-0.0014
8.22020550513763,0.0907,-0.054799999999999995,-9.8035,0.0013,0.0026,-0.0007999999999999999
8.23020575514388,0.08729999999999999,-0.028699999999999996,-9.8233,0.0019,0.0031999999999999997,-0.0009
8.24020600515013,0.0615,-0.0142,-9.7937,0.0029,0.0026999999999999997,-0.001
8.25020625515638,0.0998,-0.027399999999999997,-9.8158,0.0015999999999999999,0.0024000000000000002,-0.0009
8.26020650516263,0.0791,-0.042,-9.7976,0.0019,0.0023,-0.001
8.27020675516888,0.0936,-0.0404,-9.8119,0.0012000000000000001,0.0025,-0.0010999999999999998
8.28020700517513,0.0751,-0.0487,-9.8067,0.0014,0.0025,-0.0007999999999999999
8.29020725518138,0.0825,-0.030699999999999998,-9.791,0.0031,0.0026999999999999997,-0.0009
8.30020750518763,0.0817,-0.012199999999999999,-9.8206,0.0018,0.0028,-0.0007999999999999999
8.31020775519388,0.0759,-0.0546,-9.8011,0.002,0.0024000000000000002,-0.001
8.320208005200131,0.09829999999999998,-0.0444,-9.8059,0.0019,0.0021999999999999997,-0.001
8.330208255206381,0.0828,-0.045899999999999996,-9.811499999999999,0.0018,0.0024000000000000002,-0.001
8.340208505212631,0.0804,-0.0186,-9.8078,0.003,0.0026,-0.0009
8.350208755218882,0.0729,-0.0206,-9.7982,0.0028,0.0028,-0.0010999999999999998
8.360209005225132,0.0834,-0.0304,-9.8058,0.0025,0.0024000000000000002,-0.0007
8.370209255231382,0.08099999999999999,-0.0252,-9.7873,0.0021999999999999997,0.0021999999999999997,-0.0010999999999999998
8.380209505237632,0.1015,-0.041,-9.826799999999999,0.001,0.0025,-0.0009
8.390209755243882,0.0683,-0.0247,-9.8108,0.0015,0.0029,-0.00039999999999999996
8.400210005250132,0.0681,-0.01,-9.810599999999999,0.002,0.0026999999999999997,-0.001
8.410210255256382,0.0837,-0.0126,-9.806099999999999,0.0007,0.0023,-0.0007
8.420210505262633,0.0799,-0.031,-9.7854,0.0007,0.0019,-0.0009
8.430210755268883,0.09829999999999998,-0.043,-9.809099999999999,-0.0006000000000000001,0.0025,-0.0010999999999999998
8.440211005275133,0.0708,-0.044,-9.813099999999999,0.00030000000000000003,0.0029,-0.0005
8.450211255281383,0.0686,-0.0067,-9.8024,0.0018,0.003,-0.0006000000000000001
8.460211505287633,0.08499999999999999,-0.012799999999999999,-9.8237,0.00039999999999999996,0.0026,-0.0006000000000000001
8.470211755293883,0.0849,-0.0452,-9.8137,0.0007,0.0021999999999999997,-0.0007999999999999999
8.480212005300134,0.0785,-0.0294,-9.8095,-9.999999999999999e-05,0.0023,-0.0007999999999999999
8.490212255306384,0.06939999999999999,-0.029599999999999998,-9.7987,-0.00030000000000000003,0.0021999999999999997,-0.0006000000000000001
8.500212505312634,0.0825,-0.0086,-9.789,0.0009,0.0024000000000000002,-0.0005
8.510212755318884,0.0737,-0.023299999999999998,-9.804,0.00039999999999999996,0.0026,-0.0005
8.520213005325134,0.0733,-0.041,-9.796000000000001,0.00030000000000000003,0.0021999999999999997,-0.0005
8.530213255331384,0.09129999999999999,-0.0276,-9.8002,-9.999999999999999e-05,0.0019,-0.0005
8.540213505337634,0.0898,-0.0358,-9.806099999999999,-0.0,0.0023,-0.0006000000000000001
8.550213755343885,0.0759,-0.0273,-9.8099,0.00030000000000000003,0.0026,-0.00030000000000000003
8.560214005350135,0.061200000000000004,-0.0224,-9.8064,0.0006000000000000001,0.0026,-0.00039999999999999996
8.570214255356385,0.08310000000000001,-0.0147,-9.8097,-0.00019999999999999998,0.0023,-0.00039999999999999996
8.580214505362635,0.0834,-0.0226,-9.804599999999999,-0.0009,0.0021999999999999997,-0.0005
8.590214755368885,0.084,-0.0467,-9.7972,-0.0012000000000000001,0.0024000000000000002,-0.0006000000000000001
8.600215005375135,0.0881,-0.0415,-9.8338,-0.0007,0.0026,-0.00030000000000000003
8.610215255381386,0.0404,-0.0157,-9.7863,0.0009,0.0025,-9.999999999999999e-05
8.620215505387636,0.08729999999999999,-0.0115,-9.8163,-0.00030000000000000003,0.0024000000000000002,-0.00030000000000000003
8.630215755393886,0.0791,-0.0535,-9.824,-0.00019999999999999998,0.002,-0.00030000000000000003
8.640216005400136,0.0667,-0.039,-9.7919,-9.999999999999999e-05,0.0018,-0.00030000000000000003
8.650216255406386,0.09430000000000001,-0.0313,-9.8013,-0.00019999999999999998,0.002,-0.00030000000000000003
8.660216505412636,0.0756,-0.0167,-9.8013,0.0009,0.0021,-9.999999999999999e-05
8.670216755418886,0.07569999999999999,-0.0199,-9.8189,0.0007999999999999999,0.0024000000000000002,-0.00030000000000000003
8.680217005425137,0.0676,-0.0353,-9.8169,0.00030000000000000003,0.0021,-9.999999999999999e-05
8.690217255431387,0.0785,-0.0445,-9.7983,0.0005,0.0018,-0.00039999999999999996
8.700217505437637,0.0967,-0.0552,-9.814,0.00019999999999999998,0.0023,-0.00030000000000000003
8.710217755443887,0.0705,-0.0291,-9.8271,0.0015999999999999999,0.003,9.999999999999999e-05
8.720218005450137,0.052899999999999996,-0.004,-9.7986,0.0017,0.0026,-0.0
8.730218255456387,0.0851,-0.0063,-9.8081,0.0007,0.0021,9.999999999999999e-05
8.740218505462638,0.0737,-0.0398,-9.795399999999999,0.00030000000000000003,0.0015999999999999999,-0.00019999999999999998
8.750218755468888,0.0994,-0.038099999999999995,-9.8081,-0.00030000000000000003,0.002,0.0
8.760219005475138,0.05469999999999999,-0.0394,-9.8055,0.0006000000000000001,0.0023,9.999999999999999e-05
8.770219255481388,0.0675,-0.0252,-9.7979,0.0024000000000000002,0.002,9.999999999999999e-05
8.780219505487638,0.0872,-0.017499999999999998,-9.8305,0.001,0.0021,0.00019999999999999998
8.790219755493888,0.0725,-0.037899999999999996,-9.8235,0.0009,0.002,-0.0
8.800220005500138,0.0655,-0.0292,-9.803799999999999,0.0007,0.0017,-9.999999999999999e-05
8.810220255506389,0.0824,-0.041800000000000004,-9.8055,0.00030000000000000003,0.002,0.0
8.820220505512639,0.0712,-0.0087,-9.8025,0.0010999999999999998,0.0024000000000000002,0.00039999999999999996
8.830220755518889,0.067,-0.0014,-9.8043,-9.999999999999999e-05,0.0026,0.00019999999999999998
8.84022100552514,0.0808,-0.0416,-9.8123,-0.00039999999999999996,0.0021,0.00019999999999999998
8.85022125553139,0.0745,-0.031100000000000003,-9.8221,-0.0010999999999999998,0.0018,0.00019999999999999998
8.86022150553764,0.07029999999999999,-0.0475,-9.8049,-0.0018,0.0021,9.999999999999999e-05
8.87022175554389,0.0807,-0.0242,-9.8189,-0.0012000000000000001,0.0021999999999999997,0.00039999999999999996
8.88022200555014,0.0413,-0.0222,-9.8103,-0.0010999999999999998,0.0023,0.00019999999999999998
8.89022225555639,0.0861,-0.0252,-9.8142,-0.0017,0.0021,0.00039999999999999996
8.90022250556264,0.0796,-0.030600000000000002,-9.814499999999999,-0.0028,0.0017,9.999999999999999e-05
8.91022275556889,0.0756,-0.0435,-9.8049,-0.0031999999999999997,0.0017,0.0
8.92022300557514,0.0807,-0.025099999999999997,-9.811499999999999,-0.0029,0.0021,0.0005
8.93022325558139,0.0455,-0.0089,-9.8001,-0.0024000000000000002,0.0021999999999999997,0.00039999999999999996
8.94022350558764,0.0842,-0.0013,-9.8119,-0.0034999999999999996,0.0019,0.00039999999999999996
8.95022375559389,0.07150000000000001,-0.038400000000000004,-9.812,-0.004699999999999999,0.0017,0.00019999999999999998
8.960224005600141,0.0652,-0.05,-9.787899999999999,-0.0045000000000000005,0.0017,0.00019999999999999998
8.970224255606391,0.0939,-0.029599999999999998,-9.8138,-0.0046,0.0023,0.0006000000000000001
8.980224505612641,0.0514,-0.0231,-9.7965,-0.0034999999999999996,0.0025,0.0006000000000000001
8.990224755618891,0.0751,-0.0085,-9.8192,-0.0043,0.0021,0.0006000000000000001
9.000225005625142,0.0536,-0.034499999999999996,-9.8164,-0.0049,0.0018,0.0005
9.010225255631392,0.08850000000000001,-0.034,-9.789,-0.0053,0.0014,0.00030000000000000003
9.020225505637642,0.0797,-0.0387,-9.8053,-0.0056,0.0017,0.0005
9.030225755643892,0.0598,-0.0232,-9.8028,-0.005,0.0021999999999999997,0.0007999999999999999
9.040226005650142,0.0554,-0.0406,-9.809800000000001,-0.004399999999999999,0.0023,0.0006000000000000001
9.050226255656392,0.078,-0.0343,-9.8179,-0.0046,0.0018,0.0009
9.060226505662643,0.0824,-0.0474,-9.802900000000001,-0.0046,0.0015,0.00030000000000000003
9.070226755668893,0.0611,-0.0475,-9.8097,-0.004699999999999999,0.0015,0.0007
9.080227005675143,0.0649,-0.052099999999999994,-9.8049,-0.0045000000000000005,0.0018,0.0006000000000000001
9.090227255681393,0.0677,-0.0413,-9.8075,-0.0031,0.0021999999999999997,0.0007999999999999999
9.100227505687643,0.07629999999999999,-0.0225,-9.8303,-0.0039,0.0019,0.0006000000000000001
9.110227755693893,0.0643,-0.0472,-9.8068,-0.0041,0.0014,0.0006000000000000001
9.120228005700143,0.0688,-0.0441,-9.793,-0.0038,0.0014,0.0006000000000000001
9.130228255706394,0.08,-0.0476,-9.7957,-0.0039,0.0018,0.0006000000000000001
9.140228505712644,0.0727,-0.0348,-9.8085,-0.0034999999999999996,0.0021,0.0009
9.150228755718894,0.0519,-0.026899999999999997,-9.8109,-0.0039,0.0021,0.0009
9.160229005725144,0.0712,-0.0426,-9.805,-0.0041,0.0015,0.0007
9.170229255731394,0.0817,-0.0472,-9.8059,-0.0046,0.0013,0.0007
9.180229505737644,0.0658,-0.054799999999999995,-9.8002,-0.0049,0.0014,0.0006000000000000001
9.190229755743895,0.0789,-0.045,-9.8179,-0.0049,0.0015,0.0007999999999999999
9.200230005750145,0.037899999999999996,-0.0399,-9.7955,-0.0041,0.0015999999999999999,0.0006000000000000001
9.210230255756395,0.08209999999999999,-0.037599999999999995,-9.8063,-0.004699999999999999,0.0017,0.0007999999999999999
9.220230505762645,0.06939999999999999,-0.047,-9.806099999999999,-0.004699999999999999,0.0013,0.0007
9.230230755768895,0.0702,-0.063,-9.802900000000001,-0.005,0.0015,0.0006000000000000001
9.240231005775145,0.0654,-0.0469,-9.799900000000001,-0.0045000000000000005,0.0015999999999999999,0.001
9.250231255781395,0.05689999999999999,-0.0224,-9.7896,-0.0038,0.0015999999999999999,0.0007999999999999999
9.260231505787646,0.0776,-0.029500000000000002,-9.812899999999999,-0.0050999999999999995,0.0015999999999999999,0.0009
9.270231755793896,0.058699999999999995,-0.06509999999999999,-9.8122,-0.004699999999999999,0.0013,0.0007
9.280232005800146,0.0786,-0.07029999999999999,-9.8112,-0.005,0.0012000000000000001,0.0006000000000000001
9.290232255806396,0.0722,-0.0813,-9.8105,-0.0042,0.0015,0.0007
9.300232505812646,0.0742,-0.050100000000000006,-9.811499999999999,-0.0021999999999999997,0.0018,0.0009
9.310232755818896,0.0485,-0.0327,-9.8123,-0.0021999999999999997,0.0018,0.0006000000000000001
9.320233005825147,0.053700000000000005,-0.050699999999999995,-9.7953,-0.0029,0.0012000000000000001,0.0009
9.330233255831397,0.0809,-0.046299999999999994,-9.7965,-0.0033,0.0007,0.00039999999999999996
9.340233505837647,0.0737,-0.0647,-9.8075,-0.0045000000000000005,0.001,0.0006000000000000001
9.350233755843897,0.0593,-0.0568,-9.790799999999999,-0.0031,0.0013,0.0010999999999999998
9.360234005850147,0.059699999999999996,-0.0325,-9.804499999999999,-0.0021999999999999997,0.0012000000000000001,0.0007
9.370234255856397,0.0697,-0.0552,-9.8152,-0.0031999999999999997,0.0013,0.001
9.380234505862648,0.0713,-0.0621,-9.8124,-0.0028,0.0010999999999999998,0.0007
9.390234755868898,0.0629,-0.06369999999999999,-9.8103,-0.0031999999999999997,0.0012000000000000001,0.0006000000000000001
9.400235005875148,0.061200000000000004,-0.05999999999999999,-9.7851,-0.0021999999999999997,0.0015,0.001
9.410235255881398,0.0692,-0.0334,-9.8004,-0.0013,0.0017,0.0007999999999999999
9.420235505887648,0.0626,-0.0451,-9.8086,-0.0019,0.0017,0.0007999999999999999
9.430235755893898,0.0621,-0.0467,-9.8059,-0.0018,0.0012000000000000001,0.0009
9.440236005900148,0.0681,-0.043,-9.7996,-0.0021999999999999997,0.0006000000000000001,0.0005
9.450236255906399,0.0656,-0.087,-9.789499999999999,-0.0015999999999999999,0.0007,0.0007
9.460236505912649,0.0776,-0.0689,-9.8037,0.00030000000000000003,0.0010999999999999998,0.0010999999999999998
9.470236755918899,0.04,-0.040299999999999996,-9.802900000000001,0.0012000000000000001,0.0013,0.0009
9.480237005925149,0.0687,-0.050699999999999995,-9.8021,0.00039999999999999996,0.0007999999999999999,0.001
9.4902372559314,0.0717,-0.0621,-9.802900000000001,0.0005,0.00030000000000000003,0.0007
9.50023750593765,0.050699999999999995,-0.0625,-9.774,0.00030000000000000003,0.00039999999999999996,0.0007999999999999999
9.5102377559439,0.082,-0.0513,-9.8039,-0.00019999999999999998,0.001,0.001
9.52023800595015,0.05109999999999999,-0.032,-9.7904,0.001,0.0012000000000000001,0.0009
9.5302382559564,0.0639,-0.0361,-9.803199999999999,-9.999999999999999e-05,0.0010999999999999998,0.001
9.54023850596265,0.0558,-0.0626,-9.782499999999999,0.00019999999999999998,0.0006000000000000001,0.0009
9.5502387559689,0.0848,-0.06449999999999999,-9.794,0.00030000000000000003,0.0007999999999999999,0.0007
9.56023900597515,0.0679,-0.0958,-9.8186,0.0006000000000000001,0.0013,0.0009
9.5702392559814,0.0682,-0.051000000000000004,-9.8226,0.0026,0.0014,0.0010999999999999998
9.58023950598765,0.05159999999999999,-0.0371,-9.8069,0.0028,0.0012000000000000001,0.0007
9.5902397559939,0.0531,-0.0519,-9.815,0.0029,0.0005,0.001
9.600240006000151,0.0767,-0.0633,-9.7953,0.0025,9.999999999999999e-05,0.0005
9.610240256006401,0.0666,-0.0828,-9.7926,0.0026999999999999997,0.00019999999999999998,0.0007
9.620240506012651,0.0635,-0.07429999999999999,-9.813099999999999,0.0038,0.001,0.0007999999999999999
9.630240756018901,0.0474,-0.0439,-9.8143,0.0045000000000000005,0.0013,0.0007999999999999999
9.640241006025152,0.0577,-0.0416,-9.8208,0.0029,0.0006000000000000001,0.0007999999999999999
9.650241256031402,0.0722,-0.0664,-9.8095,0.0031,-0.0,0.0005
9.660241506037652,0.0608,-0.0433,-9.7765,0.0026999999999999997,0.0,0.0006000000000000001
9.670241756043902,0.0698,-0.062299999999999994,-9.7845,0.0025,0.0006000000000000001,0.0009
9.680242006050152,0.053399999999999996,-0.0317,-9.782499999999999,0.0036999999999999997,0.001,0.0009
9.690242256056402,0.0531,-0.0385,-9.7986,0.0031999999999999997,0.0010999999999999998,0.0007999999999999999
9.700242506062652,0.07029999999999999,-0.0453,-9.8069,0.0026,0.0007999999999999999,0.0006000000000000001
9.710242756068903,0.0756,-0.0692,-9.7921,0.0025,0.0006000000000000001,0.00019999999999999998
9.720243006075153,0.0731,-0.07479999999999999,-9.8079,0.0026,0.0006000000000000001,0.0005
9.730243256081403,0.0445,-0.0605,-9.8016,0.0039,0.0010999999999999998,0.0006000000000000001
9.740243506087653,0.036000000000000004,-0.0354,-9.7853,0.005399999999999999,0.0009,0.0007999999999999999
9.750243756093903,0.0799,-0.021599999999999998,-9.801,0.0039,0.0006000000000000001,0.0006000000000000001
9.760244006100153,0.0701,-0.0581,-9.806,0.0039,9.999999999999999e-05,0.00039999999999999996
9.770244256106404,0.0605,-0.0691,-9.8052,0.0036999999999999997,0.00019999999999999998,0.00030000000000000003
9.780244506112654,0.0594,-0.0624,-9.8075,0.0043,0.0005,0.0007999999999999999
9.790244756118904,0.0513,-0.0383,-9.7959,0.0057,0.0005,0.0005
9.800245006125154,0.0566,-0.029599999999999998,-9.8169,0.0049,0.0006000000000000001,0.0006000000000000001
9.810245256131404,0.0429,-0.0536,-9.7883,0.0048000000000000004,0.00030000000000000003,0.0005
9.820245506137654,0.0841,-0.0359,-9.7928,0.0045000000000000005,0.00019999999999999998,0.00030000000000000003
9.830245756143905,0.0761,-0.0635,-9.798,0.004,0.0007999999999999999,0.00019999999999999998
9.840246006150155,0.0535,-0.05,-9.7953,0.0052,0.001,0.0006000000000000001
9.850246256156405,0.0422,-0.034499999999999996,-9.8051,0.005399999999999999,0.0010999999999999998,0.00030000000000000003
9.860246506162655,0.063,-0.0356,-9.8237,0.0043,0.0006000000000000001,0.0005
9.870246756168905,0.0629,-0.032,-9.8021,0.0038,9.999999999999999e-05,9.999999999999999e-05
9.880247006175155,0.0563,-0.048799999999999996,-9.7912,0.0026999999999999997,0.0,-0.0
9.890247256181405,0.0579,-0.0571,-9.7759,0.0028,0.0006000000000000001,0.00039999999999999996
9.900247506187656,0.0582,-0.0313,-9.7987,0.0036999999999999997,0.001,0.00039999999999999996
9.910247756193906,0.0554,-0.0263,-9.8097,0.0028,0.0007999999999999999,0.00039999999999999996
9.920248006200156,0.062299999999999994,-0.0411,-9.8108,0.0024000000000000002,0.00030000000000000003,0.00030000000000000003
9.930248256206406,0.061799999999999994,-0.042,-9.7842,0.002,-9.999999999999999e-05,-9.999999999999999e-05
9.940248506212656,0.0732,-0.067,-9.7916,0.0015999999999999999,0.00039999999999999996,0.00019999999999999998
9.950248756218906,0.0585,-0.0438,-9.807599999999999,0.0026,0.0009,0.00030000000000000003
9.960249006225157,0.0456,-0.025099999999999997,-9.8072,0.003,0.001,0.0
9.970249256231407,0.0619,-0.0401,-9.8058,0.0026999999999999997,0.0006000000000000001,0.00019999999999999998
9.980249506237657,0.0729,-0.043,-9.7748,0.0033,9.999999999999999e-05,-0.00039999999999999996
9.990249756243907,0.0604,-0.064,-9.7912,0.0021999999999999997,0.0006000000000000001,-0.00019999999999999998
10.000250006250157,0.055,-0.043199999999999995,-9.7902,0.0038,0.001,0.00030000000000000003
10.010250256256407,0.0399,-0.0131,-9.790899999999999,0.0039,0.0009,9.999999999999999e-05
10.020250506262657,0.062200000000000005,-0.0135,-9.8132,0.0025,0.0005,0.00019999999999999998
10.030250756268908,0.050199999999999995,-0.040799999999999996,-9.794799999999999,0.0021999999999999997,-0.0,-9.999999999999999e-05
10.040251006275158,0.0718,-0.0338,-9.7714,0.0021,-0.00019999999999999998,-9.999999999999999e-05
10.050251256281408,0.05419999999999999,-0.048799999999999996,-9.7863,0.0015,0.00019999999999999998,-9.999999999999999e-05
10.060251506287658,0.059199999999999996,-0.0417,-9.7846,0.003,0.0007,0.00019999999999999998
10.070251756293908,0.0528,-0.021699999999999997,-9.789399999999999,0.0034,0.0007999999999999999,0.0
10.080252006300158,0.0584,-0.0308,-9.7938,0.0029,0.0005,9.999999999999999e-05
10.090252256306409,0.0724,-0.0407,-9.782499999999999,0.002,9.999999999999999e-05,-0.00039999999999999996
10.100252506312659,0.0588,-0.0494,-9.7912,0.0013,0.00030000000000000003,-0.00030000000000000003
10.110252756318909,0.056999999999999995,-0.0341,-9.7774,0.0015,0.0007,-9.999999999999999e-05
10.120253006325159,0.0493,-0.0206,-9.79,0.0021,0.0007,-9.999999999999999e-05
10.13025325633141,0.053200000000000004,-0.02,-9.7952,0.0013,0.00039999999999999996,0.0
10.14025350633766,0.0577,-0.0383,-9.7925,0.0013,9.999999999999999e-05,-0.00019999999999999998
10.15025375634391,0.0491,-0.044700000000000004,-9.765600000000001,0.001,-0.00019999999999999998,-9.999999999999999e-05
10.16025400635016,0.0872,-0.054799999999999995,-9.8054,0.0007999999999999999,0.00019999999999999998,-0.00019999999999999998
10.17025425635641,0.0504,-0.0419,-9.7923,0.0025,0.0005,-9.999999999999999e-05
10.18025450636266,0.0465,-0.0241,-9.7901,0.0028,0.0005,-0.00039999999999999996
10.19025475636891,0.05959999999999999,-0.033,-9.794,0.0019,9.999999999999999e-05,-0.00030000000000000003
10.20025500637516,0.0628,-0.0375,-9.782499999999999,0.002,-0.00019999999999999998,-0.0006000000000000001
10.21025525638141,0.0644,-0.0464,-9.7973,0.0009,0.00019999999999999998,-0.0006000000000000001
10.22025550638766,0.048999999999999995,-0.029599999999999998,-9.7861,0.0017,0.00019999999999999998,-0.00039999999999999996
10.23025575639391,0.051500000000000004,-0.0119,-9.7764,0.0021,0.00039999999999999996,-0.0005
10.24025600640016,0.0655,-0.0194,-9.7812,0.001,0.00030000000000000003,-0.00039999999999999996
10.250256256406411,0.055900000000000005,-0.0441,-9.7832,0.0005,9.999999999999999e-05,-0.0005
10.260256506412661,0.0686,-0.0364,-9.7799,-0.0,-0.00019999999999999998,-0.0005
10.270256756418911,0.0658,-0.0524,-9.789399999999999,9.999999999999999e-05,0.00019999999999999998,-0.0006000000000000001
10.280257006425161,0.0484,-0.0292,-9.7901,0.0015,0.0005,-0.00030000000000000003
10.290257256431412,0.0429,-0.0117,-9.7972,0.0013,0.0005,-0.0007
10.300257506437662,0.0572,-0.0243,-9.7965,0.0009,0.0,-0.0005
10.310257756443912,0.0692,-0.0312,-9.7857,0.0005,-0.00030000000000000003,-0.001
10.320258006450162,0.0585,-0.0584,-9.7752,0.00019999999999999998,-9.999999999999999e-05,-0.0007999999999999999
10.330258256456412,0.061700000000000005,-0.0424,-9.7748,0.0015999999999999999,0.0005,-0.0005
10.340258506462662,0.054299999999999994,-0.0112,-9.7768,0.003,0.0006000000000000001,-0.0006000000000000001
10.350258756468913,0.0518,-0.0052,-9.8097,0.0015999999999999999,0.00030000000000000003,-0.0007
10.360259006475163,0.0446,-0.0478,-9.7795,0.0015,-0.00030000000000000003,-0.0009
10.370259256481413,0.0802,-0.0272,-9.7749,0.0012000000000000001,-0.0006000000000000001,-0.0007999999999999999
10.380259506487663,0.0664,-0.0392,-9.7819,0.0010999999999999998,-9.999999999999999e-05,-0.0007
10.390259756493913,0.0659,-0.0237,-9.785,0.0021999999999999997,0.00019999999999999998,-0.0007
10.400260006500163,0.018799999999999997,-0.024499999999999997,-9.7785,0.0025,9.999999999999999e-05,-0.0007999999999999999
10.410260256506414,0.0747,-0.0249,-9.766,0.0019,-0.00030000000000000003,-0.0006000000000000001
10.420260506512664,0.07619999999999999,-0.029300000000000003,-9.7889,0.0018,-0.00030000000000000003,-0.0013
10.430260756518914,0.0445,-0.053399999999999996,-9.769,0.0015999999999999999,-9.999999999999999e-05,-0.0007999999999999999
10.440261006525164,0.0607,-0.034,-9.7697,0.0026,0.00019999999999999998,-0.0007999999999999999
10.450261256531414,0.045,-0.0046,-9.7761,0.0039,0.00039999999999999996,-0.0007
10.460261506537664,0.054799999999999995,-0.0076,-9.7858,0.0024000000000000002,0.00019999999999999998,-0.0007999999999999999
10.470261756543914,0.0509,-0.0339,-9.7801,0.0021999999999999997,-0.00039999999999999996,-0.0009
10.480262006550165,0.0631,-0.0243,-9.7749,0.0015,-0.0005,-0.0010999999999999998
10.490262256556415,0.062,-0.056400000000000006,-9.764000000000001,0.0021,-0.00030000000000000003,-0.0010999999999999998
10.500262506562665,0.0654,-0.0213,-9.790799999999999,0.0026,-0.00019999999999999998,-0.0006000000000000001
10.510262756568915,0.0235,-0.025300000000000003,-9.7755,0.0031,-0.00019999999999999998,-0.0013
10.520263006575165,0.0604,-0.0115,-9.7837,0.0026,-0.0007,-0.0007999999999999999
10.530263256581415,0.0603,-0.0222,-9.7729,0.0019,-0.0007,-0.0013
10.540263506587666,0.0594,-0.0429,-9.7813,0.0015,-0.0005,-0.0013
10.550263756593916,0.0492,-0.0284,-9.765699999999999,0.0019,-0.00019999999999999998,-0.001
10.560264006600166,0.0456,-0.014799999999999999,-9.7783,0.0028,-0.00019999999999999998,-0.0010999999999999998
10.570264256606416,0.051500000000000004,-0.0179,-9.7852,0.0021,-0.00030000000000000003,-0.0010999999999999998
10.580264506612666,0.06319999999999999,-0.036000000000000004,-9.7777,0.003,-0.0005,-0.0012000000000000001
10.590264756618916,0.0496,-0.0186,-9.761899999999999,0.0025,-0.0007999999999999999,-0.0012000000000000001
10.600265006625166,0.07029999999999999,-0.0464,-9.7676,0.0029,-0.0006000000000000001,-0.0013
10.610265256631417,0.053799999999999994,-0.0202,-9.7834,0.0043,-9.999999999999999e-05,-0.001
10.620265506637667,0.0291,-0.0135,-9.7684,0.0048000000000000004,-0.00019999999999999998,-0.0013
10.630265756643917,0.0654,-0.005,-9.7837,0.004,-0.0007,-0.001
10.640266006650167,0.0583,-0.0172,-9.7705,0.0036999999999999997,-0.0010999999999999998,-0.0017
10.650266256656417,0.0571,-0.038400000000000004,-9.7805,0.0029,-0.0009,-0.0013
10.660266506662667,0.0473,-0.0194,-9.7707,0.0031,-0.0005,-0.0010999999999999998
10.670266756668918,0.0555,0.0135,-9.786999999999999,0.004,-0.0006000000000000001,-0.0012000000000000001
10.680267006675168,0.049499999999999995,0.0202,-9.7873,0.0028,-0.0006000000000000001,-0.0010999999999999998
10.690267256681418,0.0493,-0.0241,-9.7708,0.0026999999999999997,-0.0007,-0.0013
10.700267506687668,0.0555,-0.0246,-9.7651,0.0023,-0.0009,-0.0012000000000000001
10.710267756693918,0.0782,-0.0321,-9.7738,0.0028,-0.00039999999999999996,-0.0010999999999999998
10.720268006700168,0.0528,-0.0161,-9.796000000000001,0.0036999999999999997,-9.999999999999999e-05,-0.001
10.730268256706418,0.0281,0.0085,-9.7725,0.0038,-0.0005,-0.0010999999999999998
10.740268506712669,0.0635,0.0101,-9.7814,0.0021999999999999997,-0.0007,-0.0010999999999999998
10.750268756718919,0.055,-0.0058,-9.7801,0.0017,-0.0010999999999999998,-0.0014
10.760269006725169,0.05159999999999999,-0.0195,-9.7693,0.0007999999999999999,-0.0010999999999999998,-0.0012000000000000001
10.770269256731419,0.0562,-0.0332,-9.7716,0.0019,-0.0006000000000000001,-0.0009
10.78026950673767,0.061700000000000005,0.0092,-9.787899999999999,0.0031,-0.0005,-0.001
10.79026975674392,0.0392,-9.999999999999999e-05,-9.7834,0.0026999999999999997,-0.00039999999999999996,-0.001
10.80027000675017,0.05,-0.0162,-9.769799999999998,0.0031,-0.0007999999999999999,-0.001
10.81027025675642,0.06989999999999999,-0.0125,-9.7696,0.0021999999999999997,-0.0009,-0.0012000000000000001
10.82027050676267,0.067,-0.0276,-9.7834,0.0023,-0.0005,-0.0010999999999999998
10.83027075676892,0.0444,-0.0154,-9.7872,0.0034999999999999996,0.0,-0.001
10.84027100677517,0.0338,-0.0063,-9.7706,0.004,-0.00039999999999999996,-0.0010999999999999998
10.85027125678142,0.06369999999999999,-0.0091,-9.780899999999999,0.0036,-0.0007999999999999999,-0.001
10.86027150678767,0.06999999999999999,-0.017,-9.7768,0.0036999999999999997,-0.0007999999999999999,-0.0013
10.87027175679392,0.053399999999999996,-0.0119,-9.779599999999999,0.0031999999999999997,-0.0007,-0.0012000000000000001
10.88027200680017,0.048999999999999995,-0.031100000000000003,-9.7595,0.0031999999999999997,-0.0005,-0.0010999999999999998
10.890272256806421,0.0698,0.0112,-9.782599999999999,0.0041,-0.0005,-0.0007999999999999999
10.900272506812671,0.0359,0.0203,-9.7749,0.0031999999999999997,-0.00039999999999999996,-0.0012000000000000001
10.910272756818921,0.051699999999999996,-0.0045000000000000005,-9.771,0.0025,-0.0007999999999999999,-0.0009
10.920273006825171,0.064,-0.0045000000000000005,-9.7759,0.0013,-0.0009,-0.0013
10.930273256831422,0.060099999999999994,-0.0163,-9.7691,0.0007999999999999999,-0.0007,-0.0010999999999999998
10.940273506837672,0.0504,-0.007899999999999999,-9.7817,0.0013,-0.00030000000000000003,-0.001
10.950273756843922,0.034699999999999995,0.0119,-9.7697,0.0021,-0.00039999999999999996,-0.001
10.960274006850172,0.056400000000000006,0.0055,-9.7823,0.001,-0.00039999999999999996,-0.001
10.970274256856422,0.0568,-0.009899999999999999,-9.7806,0.001,-0.0006000000000000001,-0.0010999999999999998
10.980274506862672,0.0553,-0.0106,-9.7624,0.0006000000000000001,-0.0007,-0.0013
10.990274756868923,0.06319999999999999,-0.0228,-9.772400000000001,0.0007,-0.0005,-0.0009
11.000275006875173,0.050199999999999995,0.0106,-9.772599999999999,0.0012000000000000001,-0.00030000000000000003,-0.001
11.010275256881423,0.0426,0.0091,-9.7765,0.0015,-0.00030000000000000003,-0.001
11.020275506887673,0.0508,0.00019999999999999998,-9.7827,0.0005,-0.0005,-0.0007999999999999999
11.030275756893923,0.0616,-0.0225,-9.7803,0.00030000000000000003,-0.0007,-0.0012000000000000001
11.040276006900173,0.0486,-0.0231,-9.7821,9.999999999999999e-05,-0.0006000000000000001,-0.001
11.050276256906423,0.0599,-0.0202,-9.7761,0.0014,-0.00039999999999999996,-0.0009
11.060276506912674,0.047,0.0092,-9.7804,0.0024000000000000002,-0.00019999999999999998,-0.001
11.070276756918924,0.04889999999999999,-0.006,-9.7788,0.0013,-0.00019999999999999998,-0.0010999999999999998
11.080277006925174,0.0436,-0.0275,-9.7704,0.0015,-0.0006000000000000001,-0.001
11.090277256931424,0.0658,-0.0062,-9.7601,0.001,-0.0007,-0.0012000000000000001
11.100277506937674,0.0652,-0.023,-9.7746,0.0014,-0.00039999999999999996,-0.0010999999999999998
11.110277756943924,0.0455,-0.0119,-9.7847,0.0021,9.999999999999999e-05,-0.0009
11.120278006950175,0.0314,0.0073,-9.7666,0.0024000000000000002,-0.00030000000000000003,-0.0010999999999999998
11.130278256956425,0.060599999999999994,-0.00030000000000000003,-9.7762,0.002,-0.0007,-0.001
11.140278506962675,0.0619,-0.0147,-9.7715,0.0026,-0.0007999999999999999,-0.0013
11.150278756968925,0.041800000000000004,-0.0243,-9.7668,0.0023,-0.00039999999999999996,-0.0013
11.160279006975175,0.053,-0.0305,-9.7665,0.0025,-9.999999999999999e-05,-0.001
11.170279256981425,0.053799999999999994,0.0171,-9.7779,0.0034999999999999996,-0.00019999999999999998,-0.001
11.180279506987675,0.0397,0.0206,-9.7807,0.0026,-0.00019999999999999998,-0.0013
11.190279756993926,0.0491,-0.0127,-9.7594,0.0024000000000000002,-0.0006000000000000001,-0.0012000000000000001
11.200280007000176,0.0712,-0.00019999999999999998,-9.7682,0.0015,-0.0007,-0.0014
11.210280257006426,0.05,-0.0183,-9.7711,0.0010999999999999998,-0.00039999999999999996,-0.0013
11.220280507012676,0.0458,-0.0015,-9.761,0.0021999999999999997,-0.00030000000000000003,-0.001
11.230280757018926,0.0264,0.013699999999999999,-9.7563,0.0024000000000000002,-0.0005,-0.0010999999999999998
11.240281007025176,0.076,0.0105,-9.7866,0.0012000000000000001,-0.0005,-0.0010999999999999998
11.250281257031427,0.0428,-0.0083,-9.7785,0.0010999999999999998,-0.0006000000000000001,-0.0015
11.260281507037677,0.0441,-0.0134,-9.7516,0.0005,-0.0007999999999999999,-0.0012000000000000001
11.270281757043927,0.063,-0.0223,-9.7681,0.0010999999999999998,-0.00039999999999999996,-0.0014
11.280282007050177,0.051500000000000004,0.0077,-9.7798,0.0019,-9.999999999999999e-05,-0.001
11.290282257056427,0.026899999999999997,0.0076,-9.774,0.0012000000000000001,-9.999999999999999e-05,-0.0015
11.300282507062677,0.0473,0.0012000000000000001,-9.7592,0.0013,-0.0007999999999999999,-0.0010999999999999998
11.310282757068927,0.0717,0.0089,-9.7677,9.999999999999999e-05,-0.0007,-0.0015999999999999999
11.320283007075178,0.0578,-0.0206,-9.7765,-0.00030000000000000003,-0.00039999999999999996,-0.0013
11.330283257081428,0.0409,-0.0053,-9.782599999999999,0.0005,-0.00019999999999999998,-0.0012000000000000001
11.340283507087678,0.0288,0.019200000000000002,-9.7669,0.0012000000000000001,-0.00030000000000000003,-0.0010999999999999998
11.350283757093928,0.05330000000000001,0.0169,-9.7864,-0.00019999999999999998,-0.0005,-0.0012000000000000001
11.360284007100178,0.048999999999999995,-0.0185,-9.781099999999999,0.0,-0.0007,-0.0015
11.370284257106428,0.05999999999999999,-0.0142,-9.7716,-0.00030000000000000003,-0.0007,-0.0014
11.380284507112679,0.057999999999999996,-0.0169,-9.7776,0.001,-0.00039999999999999996,-0.0013
11.390284757118929,0.036699999999999997,0.025500000000000002,-9.7651,0.0018,-9.999999999999999e-05,-0.0012000000000000001
11.400285007125179,0.0412,0.0026,-9.7827,0.001,0.0,-0.0015
11.410285257131429,0.0445,-0.0057,-9.7732,0.0006000000000000001,-0.00039999999999999996,-0.0012000000000000001
11.42028550713768,0.07680000000000001,0.0036999999999999997,-9.7765,0.00039999999999999996,-0.0005,-0.0017
11.43028575714393,0.039,-0.0184,-9.777,0.00019999999999999998,-0.00030000000000000003,-0.0013
11.44028600715018,0.0388,-0.004399999999999999,-9.7659,0.0017,-0.00019999999999999998,-0.0010999999999999998
11.45028625715643,0.0353,0.0272,-9.7732,0.0018,-9.999999999999999e-05,-0.0010999999999999998
11.46028650716268,0.0481,0.013300000000000001,-9.7792,0.0007999999999999999,-0.00039999999999999996,-0.0012000000000000001
11.47028675716893,0.0486,0.002,-9.7765,0.0007,-0.0007,-0.0014
11.48028700717518,0.0599,-0.0121,-9.7587,-0.0,-0.0007,-0.0015
11.49028725718143,0.0589,-0.0275,-9.770199999999999,0.0007999999999999999,-0.0,-0.0013
11.50028750718768,0.042,0.0119,-9.773299999999999,0.0019,0.00030000000000000003,-0.0010999999999999998
11.51028775719393,0.0297,0.014100000000000001,-9.7861,0.002,0.00019999999999999998,-0.0015
11.52028800720018,0.0453,0.015899999999999997,-9.7802,0.001,-0.00019999999999999998,-0.0010999999999999998
11.530288257206431,0.0659,0.006999999999999999,-9.7768,0.0005,-0.0005,-0.0015999999999999999
11.540288507212681,0.05,-0.014799999999999999,-9.7745,-9.999999999999999e-05,-0.00030000000000000003,-0.0015
11.550288757218931,0.0378,-0.009000000000000001,-9.7638,0.0010999999999999998,9.999999999999999e-05,-0.0010999999999999998
11.560289007225181,0.039599999999999996,0.0265,-9.7685,0.0017,0.00019999999999999998,-0.0010999999999999998
11.570289257231432,0.046599999999999996,0.018799999999999997,-9.7864,0.001,-0.0,-0.0010999999999999998
11.580289507237682,0.0451,0.0007,-9.778699999999999,0.0009,-0.00039999999999999996,-0.0012000000000000001
11.590289757243932,0.0585,-0.0063999999999999994,-9.772599999999999,0.0007,-0.00039999999999999996,-0.0015
11.600290007250182,0.0505,-0.0337,-9.774199999999999,0.0009,-0.0,-0.0013
11.610290257256432,0.0594,-0.0146,-9.7864,0.0026,0.0005,-0.0012000000000000001
11.620290507262682,0.0146,0.0124,-9.779599999999999,0.0039,0.00039999999999999996,-0.0013
11.630290757268932,0.0493,0.017599999999999998,-9.7765,0.0031,0.0,-0.0012000000000000001
11.640291007275183,0.057499999999999996,-0.0031,-9.7847,0.0028,-0.00019999999999999998,-0.0017
11.650291257281433,0.042,-0.020399999999999998,-9.768799999999999,0.0023,-0.0,-0.0015
11.660291507287683,0.056999999999999995,-0.007499999999999999,-9.777199999999999,0.003,0.0005,-0.0013
11.670291757293933,0.0254,0.0179,-9.7707,0.0038,0.0005,-0.0012000000000000001
11.680292007300183,0.053399999999999996,0.025799999999999997,-9.7878,0.0024000000000000002,0.00039999999999999996,-0.0013
11.690292257306433,0.0292,0.006999999999999999,-9.7749,0.0015999999999999999,-0.0,-0.0013
11.700292507312684,0.06939999999999999,0.007899999999999999,-9.7626,0.0005,-0.00030000000000000003,-0.0015
11.710292757318934,0.053399999999999996,-0.0124,-9.7755,-0.00030000000000000003,0.0,-0.0015
11.720293007325184,0.036000000000000004,0.0082,-9.767299999999999,0.00039999999999999996,0.0005,-0.0010999999999999998
11.730293257331434,0.0359,0.0265,-9.7671,0.0007999999999999999,0.0006000000000000001,-0.0015
11.740293507337684,0.050100000000000006,0.0172,-9.7775,-0.00019999999999999998,0.00030000000000000003,-0.0010999999999999998
11.750293757343934,0.055,0.0135,-9.7868,-0.0009,-0.0,-0.0015999999999999999
11.760294007350184,0.043,-0.0142,-9.7752,-0.0014,0.00030000000000000003,-0.0017
11.770294257356435,0.049499999999999995,-0.0013,-9.7789,-0.00039999999999999996,0.0009,-0.0010999999999999998
11.780294507362685,0.038400000000000004,0.025300000000000003,-9.7777,0.00039999999999999996,0.0012000000000000001,-0.0014
11.790294757368935,0.0334,0.0138,-9.7947,-0.0,0.0009,-0.0010999999999999998
11.800295007375185,0.0436,-0.001,-9.7806,0.00039999999999999996,0.00039999999999999996,-0.0013
11.810295257381435,0.055999999999999994,-0.006999999999999999,-9.7715,0.00030000000000000003,9.999999999999999e-05,-0.0015
11.820295507387685,0.0442,-0.009399999999999999,-9.7721,0.0007,0.00039999999999999996,-0.0012000000000000001
11.830295757393936,0.045,-0.003,-9.775599999999999,0.0015999999999999999,0.0007,-0.0012000000000000001
11.840296007400186,0.028699999999999996,0.0194,-9.7838,0.0024000000000000002,0.0007,-0.0012000000000000001
11.850296257406436,0.038099999999999995,0.0043,-9.7791,0.0013,0.00039999999999999996,-0.0012000000000000001
11.860296507412686,0.0701,0.0107,-9.79,0.0017,0.00019999999999999998,-0.0014
11.870296757418936,0.029599999999999998,-0.0010999999999999998,-9.7632,0.0015999999999999999,0.0005,-0.0015
11.880297007425186,0.06459999999999999,-0.0026999999999999997,-9.778699999999999,0.0015999999999999999,0.0010999999999999998,-0.001
11.890297257431437,0.037599999999999995,0.0289,-9.7803,0.0029,0.0014,-0.0013
11.900297507437687,0.039599999999999996,0.0284,-9.7951,0.0013,0.0013,-0.0012000000000000001
11.910297757443937,0.0273,0.0114,-9.7766,0.0006000000000000001,0.0007999999999999999,-0.0012000000000000001
11.920298007450187,0.0679,-0.0005,-9.7663,9.999999999999999e-05,0.0007,-0.0014
11.930298257456437,0.05739999999999999,0.0036999999999999997,-9.7876,-0.00030000000000000003,0.0013,-0.001
11.940298507462687,0.034,0.0196,-9.7834,0.00039999999999999996,0.0014,-0.0010999999999999998
11.950298757468937,0.021,0.015799999999999998,-9.760399999999999,0.0007999999999999999,0.0010999999999999998,-0.0012000000000000001
11.960299007475188,0.0469,0.0084,-9.7734,-9.999999999999999e-05,0.0007999999999999999,-0.0009
11.970299257481438,0.051199999999999996,-0.00039999999999999996,-9.7773,-0.00030000000000000003,0.0005,-0.0015
11.980299507487688,0.0438,-0.013999999999999999,-9.7795,-0.0007,0.0006000000000000001,-0.0014
11.990299757493938,0.0409,-0.010199999999999999,-9.7925,-0.0,0.001,-0.0013
12.000300007500188,0.0353,0.027099999999999996,-9.7614,0.0010999999999999998,0.001,-0.0012000000000000001
12.010300257506438,0.044700000000000004,0.0414,-9.780899999999999,-0.0,0.001,-0.0010999999999999998
12.020300507512689,0.0354,0.009899999999999999,-9.762899999999998,9.999999999999999e-05,0.0010999999999999998,-0.0010999999999999998
12.030300757518939,0.0643,0.0134,-9.763399999999999,-0.0010999999999999998,0.001,-0.0014
12.040301007525189,0.050100000000000006,-0.0225,-9.779599999999999,-0.002,0.0015,-0.0012000000000000001
12.050301257531439,0.0401,-0.0018,-9.7828,-0.00039999999999999996,0.0017,-0.001
12.06030150753769,0.0171,0.0294,-9.7814,0.00039999999999999996,0.0015999999999999999,-0.0012000000000000001
12.07030175754394,0.0407,0.0252,-9.7848,-0.0010999999999999998,0.001,-0.001
12.08030200755019,0.0475,0.0069,-9.7847,-0.001,0.0007999999999999999,-0.0015
12.09030225755644,0.0371,0.0039,-9.7511,-0.0013,0.0006000000000000001,-0.0013
12.10030250756269,0.0498,-0.008799999999999999,-9.770299999999999,-0.0010999999999999998,0.0012000000000000001,-0.001
12.11030275756894,0.0334,0.015300000000000001,-9.780800000000001,0.00030000000000000003,0.0013,-0.001
12.12030300757519,0.034499999999999996,0.0228,-9.7801,-0.00030000000000000003,0.0014,-0.0010999999999999998
12.13030325758144,0.026699999999999998,0.009000000000000001,-9.7836,-0.0005,0.0009,-0.001
12.14030350758769,0.0584,0.004699999999999999,-9.7765,-0.0009,0.0006000000000000001,-0.0013
12.15030375759394,0.054,0.0012000000000000001,-9.7853,-0.0015,0.001,-0.0010999999999999998
12.16030400760019,0.027399999999999997,0.0007999999999999999,-9.7777,-0.001,0.0015999999999999999,-0.0007999999999999999
12.17030425760644,0.0191,0.025599999999999998,-9.775,-0.0,0.0017,-0.0009
12.180304507612691,0.0456,0.0104,-9.7887,-0.0006000000000000001,0.0015999999999999999,-0.0007999999999999999
12.190304757618941,0.046099999999999995,0.0049,-9.792,-0.00039999999999999996,0.0014,-0.0010999999999999998
12.200305007625191,0.0276,-0.0167,-9.7795,-0.0005,0.0014,-0.0012000000000000001
12.210305257631441,0.0456,-0.0068,-9.7889,-9.999999999999999e-05,0.0015999999999999999,-0.0007
12.220305507637692,0.031599999999999996,0.026600000000000002,-9.7823,0.0009,0.0015,-0.0009
12.230305757643942,0.027,0.013699999999999999,-9.7888,0.0009,0.0015,-0.0010999999999999998
12.240306007650192,0.0329,-0.0072,-9.7875,0.0005,0.0012000000000000001,-0.001
12.250306257656442,0.0431,-0.0034,-9.7705,0.0005,0.001,-0.0012000000000000001
12.260306507662692,0.060599999999999994,-0.0117,-9.7838,0.0006000000000000001,0.0014,-0.001
12.270306757668942,0.0353,0.0017,-9.7968,0.0024000000000000002,0.0018,-0.0007
12.280307007675193,0.0171,0.0241,-9.787999999999998,0.0031,0.0019,-0.0009
12.290307257681443,0.0354,0.0076,-9.7792,0.0021999999999999997,0.0018,-0.0007999999999999999
12.300307507687693,0.051500000000000004,0.00019999999999999998,-9.7866,0.0023,0.0015,-0.0010999999999999998
12.310307757693943,0.0344,-0.0196,-9.7937,0.0013,0.002,-0.0010999999999999998
12.320308007700193,0.0304,-0.012899999999999998,-9.7704,0.0029,0.0023,-0.0007999999999999999
12.330308257706443,0.0391,0.032299999999999995,-9.8017,0.0033,0.0024000000000000002,-0.0007999999999999999
12.340308507712693,0.0181,0.019799999999999998,-9.795399999999999,0.0028,0.0021,-0.0010999999999999998
12.350308757718944,0.0393,-0.0034,-9.7872,0.0029,0.0015,-0.001
12.360309007725194,0.0438,-0.0103,-9.7701,0.0024000000000000002,0.0015999999999999999,-0.0013
12.370309257731444,0.045399999999999996,-0.0184,-9.7821,0.0031,0.0019,-0.0009
12.380309507737694,0.0268,0.024,-9.7821,0.0039,0.0024000000000000002,-0.0006000000000000001
12.390309757743944,0.0167,0.0248,-9.7853,0.004,0.0021,-0.001
12.400310007750194,0.033100000000000004,0.020399999999999998,-9.793,0.003,0.0018,-0.0007
12.410310257756445,0.0528,0.0042,-9.782499999999999,0.0025,0.0015999999999999999,-0.0012000000000000001
12.420310507762695,0.0355,0.0046,-9.796299999999999,0.0021,0.0019,-0.0009
12.430310757768945,0.0262,0.00039999999999999996,-9.7785,0.0033,0.0024000000000000002,-0.0007999999999999999
12.440311007775195,0.0249,0.0143,-9.7758,0.0046,0.0025,-0.0007999999999999999
12.450311257781445,0.033,0.0138,-9.7936,0.004,0.0026,-0.0009
12.460311507787695,0.0312,9.999999999999999e-05,-9.796000000000001,0.0043,0.0025,-0.0009
12.470311757793946,0.0299,0.0124,-9.7754,0.0039,0.0023,-0.001
12.480312007800196,0.0387,-0.00030000000000000003,-9.7791,0.0041,0.0024000000000000002,-0.0009
12.490312257806446,0.0263,0.0076,-9.7823,0.005,0.0025,-0.0007999999999999999
12.500312507812696,0.0224,0.0218,-9.8001,0.005,0.0026,-0.0009
12.510312757818946,0.0275,0.0168,-9.7923,0.0045000000000000005,0.0021,-0.0007999999999999999
12.520313007825196,0.0368,-0.0052,-9.782499999999999,0.004399999999999999,0.0018,-0.0010999999999999998
12.530313257831446,0.0444,-0.0151,-9.7821,0.004399999999999999,0.0021,-0.001
12.540313507837697,0.0276,0.0068,-9.7938,0.0056,0.0026999999999999997,-0.0007
12.550313757843947,0.0085,0.028499999999999998,-9.7884,0.0063999999999999994,0.0029,-0.0009
12.560314007850197,0.0335,0.018699999999999998,-9.8005,0.005,0.0025,-0.0007
12.570314257856447,0.0314,0.0097,-9.7836,0.0049,0.0021999999999999997,-0.001
12.580314507862697,0.0259,0.018000000000000002,-9.7827,0.004,0.0023,-0.0010999999999999998
12.590314757868947,0.0393,0.0031,-9.7837,0.0043,0.003,-0.0009
12.600315007875198,0.0196,0.0273,-9.8037,0.0053,0.0033,-0.0009
12.610315257881448,0.0118,0.0174,-9.7867,0.0050999999999999995,0.0031999999999999997,-0.0009
12.620315507887698,0.0317,0.0236,-9.8043,0.0055,0.0026999999999999997,-0.0007999999999999999
12.630315757893948,0.0349,0.026,-9.804,0.005,0.0026,-0.0012000000000000001
12.640316007900198,0.0276,0.0029,-9.792,0.004399999999999999,0.0028,-0.0009
12.650316257906448,0.021,0.0278,-9.775699999999999,0.0052,0.0026999999999999997,-0.0005
12.660316507912698,0.018000000000000002,0.050199999999999995,-9.7845,0.005399999999999999,0.0026999999999999997,-0.0007999999999999999
12.670316757918949,0.0213,0.034,-9.786999999999999,0.0042,0.0026999999999999997,-0.0005
12.680317007925199,0.0288,0.0144,-9.771,0.0043,0.0023,-0.0007999999999999999
12.690317257931449,0.0452,0.0196,-9.807,0.0033,0.0026,-0.0007999999999999999
12.700317507937699,0.0069,0.0146,-9.7848,0.0042,0.0031999999999999997,-0.0006000000000000001
12.71031775794395,0.0095,0.054,-9.7812,0.0048000000000000004,0.0031999999999999997,-0.00039999999999999996
12.7203180079502,0.0348,0.05469999999999999,-9.7818,0.003,0.003,-0.0005
12.73031825795645,0.031599999999999996,0.025799999999999997,-9.790899999999999,0.0026,0.0028,-0.00039999999999999996
12.7403185079627,0.0202,0.0273,-9.7812,0.0015999999999999999,0.0031,-0.0006000000000000001
12.75031875796895,0.030699999999999998,0.0076,-9.800699999999999,0.0014,0.0034999999999999996,-0.00030000000000000003
12.7603190079752,0.0202,0.0397,-9.7926,0.0023,0.0034999999999999996,-0.00019999999999999998
12.77031925798145,0.015799999999999998,0.0346,-9.8021,0.002,0.0034,-0.0005
12.7803195079877,0.0048000000000000004,0.0286,-9.7925,0.0018,0.0029,-9.999999999999999e-05
12.79031975799395,0.0353,0.029300000000000003,-9.7875,0.0007,0.0026999999999999997,-0.0006000000000000001
