Time [s],ACC X [m/s^2],ACC Y [m/s^2],ACC Z [m/s^2],GYRO X [rad/s],GYRO Y [rad/s],GYRO Z [rad/s]
0.0,0.0006000000000000001,0.5147999999999999,-9.7449,-9.999999999999999e-05,0.0010999999999999998,0.0242
0.010000250006250157,0.030899999999999997,0.47819999999999996,-9.7525,-0.0007,0.0007999999999999999,0.0242
0.020000500012500314,0.0397,0.4784,-9.7736,-0.0006000000000000001,0.0013,0.0239
0.030000750018750473,0.0066,0.47819999999999996,-9.775,-0.0015,0.0019,0.024399999999999998
0.04000100002500063,0.0042,0.49979999999999997,-9.774199999999999,0.0006000000000000001,0.0014,0.0243
0.050001250031250784,0.0025,0.48910000000000003,-9.754,0.0005,0.0010999999999999998,0.024
0.060001500037500946,0.015899999999999997,0.45909999999999995,-9.7346,0.0007,0.0007999999999999999,0.0242
0.0700017500437511,0.0497,0.469,-9.7799,0.0007,0.0014,0.0238
0.08000200005000126,-0.0072,0.47479999999999994,-9.7685,0.0007,0.0017,0.0242
0.09000225005625141,0.0208,0.5091,-9.770299999999999,0.0021,0.0014,0.0243
0.10000250006250157,-0.0123,0.49420000000000003,-9.7538,0.0015,0.0010999999999999998,0.0239
0.11000275006875172,0.029300000000000003,0.4818,-9.7606,0.0009,0.0007,0.0241
0.12000300007500189,0.0277,0.48989999999999995,-9.774099999999999,9.999999999999999e-05,0.0013,0.0238
0.13000325008125205,0.0041,0.47229999999999994,-9.7719,0.0006000000000000001,0.0015,0.024
0.1400035000875022,0.014100000000000001,0.4914,-9.7613,0.0017,0.0013,0.0243
0.15000375009375236,-0.0157,0.5015000000000001,-9.7468,0.0017,0.0010999999999999998,0.024
0.1600040001000025,0.0315,0.47479999999999994,-9.762,0.0010999999999999998,0.0007999999999999999,0.0239
0.17000425010625267,0.030600000000000002,0.4835,-9.774099999999999,0.0012000000000000001,0.0010999999999999998,0.0236
0.18000450011250282,0.0087,0.4922,-9.778,0.00019999999999999998,0.0014,0.0238
0.19000475011875298,0.0018,0.5099,-9.7552,0.0007999999999999999,0.0010999999999999998,0.0241
0.20000500012500314,-0.018699999999999998,0.5024,-9.746699999999999,0.0006000000000000001,0.0007,0.0237
0.2100052501312533,0.033,0.46740000000000004,-9.7532,-0.00039999999999999996,0.0005,0.0239
0.22000550013750345,0.0193,0.46649999999999997,-9.7515,0.0005,0.0009,0.0236
0.2300057501437536,0.0015,0.4681,-9.745800000000001,0.00039999999999999996,0.0010999999999999998,0.0237
0.24000600015000378,0.0214,0.48019999999999996,-9.7492,0.0021999999999999997,0.001,0.024
0.25000625015625394,-0.0103,0.48869999999999997,-9.7543,0.0025,0.0007999999999999999,0.0235
0.2600065001625041,0.0262,0.4915,-9.7645,0.0021,0.0005,0.0238
0.27000675016875425,0.021699999999999997,0.5007,-9.7782,0.0017,0.0007999999999999999,0.023299999999999998
0.2800070001750044,-0.0,0.4769,-9.756499999999999,0.0014,0.001,0.0236
0.29000725018125456,0.0142,0.5001,-9.757299999999999,0.0021,0.0010999999999999998,0.024
0.3000075001875047,-0.014100000000000001,0.49049999999999994,-9.758799999999999,0.0023,0.0009,0.0234
0.31000775019375487,0.0199,0.47879999999999995,-9.7685,0.0017,0.00039999999999999996,0.0238
0.320008000200005,0.007899999999999999,0.4733,-9.7593,0.0021,0.0006000000000000001,0.0232
0.3300082502062552,0.0146,0.4923,-9.7795,0.0009,0.0005,0.0234
0.34000850021250534,0.0056,0.5193,-9.7614,0.0012000000000000001,0.0005,0.0236
0.3500087502187555,-0.015799999999999998,0.5136,-9.7558,0.0005,9.999999999999999e-05,0.023299999999999998
0.36000900022500565,0.0146,0.49959999999999993,-9.758600000000001,-0.0013,-0.00019999999999999998,0.0237
0.3700092502312558,0.0179,0.49500000000000005,-9.7508,-0.0015,0.00019999999999999998,0.0234
0.38000950023750596,0.0341,0.4947,-9.7765,-0.0026999999999999997,0.0007,0.0234
0.3900097502437561,0.0036999999999999997,0.48919999999999997,-9.7597,-0.0021999999999999997,0.0007,0.0236
0.40001000025000627,-0.0172,0.49699999999999994,-9.747599999999998,-0.002,0.00030000000000000003,0.0234
0.4100102502562564,0.0095,0.4895,-9.757200000000001,-0.0028,9.999999999999999e-05,0.0235
0.4200105002625066,0.0062,0.4654,-9.7443,-0.0021999999999999997,0.00030000000000000003,0.023299999999999998
0.43001075026875674,0.0319,0.4733,-9.7749,-0.0021999999999999997,0.0006000000000000001,0.0232
0.4400110002750069,0.0101,0.4948,-9.774,-0.0018,0.0006000000000000001,0.0236
0.45001125028125705,-0.0325,0.5086,-9.7551,-0.0012000000000000001,0.00019999999999999998,0.0231
0.4600115002875072,0.009000000000000001,0.4991,-9.765799999999999,-0.0021999999999999997,-0.00030000000000000003,0.0235
0.47001175029375736,0.0093,0.48139999999999994,-9.758999999999999,-0.0025,-0.00030000000000000003,0.0231
0.48001200030000757,0.0328,0.4681,-9.7854,-0.0034,0.00019999999999999998,0.023
0.4900122503062577,-0.0118,0.47759999999999997,-9.7615,-0.0023,0.00039999999999999996,0.0236
0.5000125003125079,-0.0139,0.49529999999999996,-9.7547,-0.0009,-9.999999999999999e-05,0.0231
0.510012750318758,0.0059,0.49829999999999997,-9.7487,-0.0021999999999999997,-0.00039999999999999996,0.0235
0.5200130003250082,0.009600000000000001,0.4804,-9.758,-0.0026,-0.00030000000000000003,0.0231
0.5300132503312583,0.0294,0.4864,-9.7711,-0.0033,-0.00030000000000000003,0.0228
0.5400135003375085,0.004399999999999999,0.48719999999999997,-9.7646,-0.0038,0.0,0.0234
0.5500137503437587,-0.0154,0.494,-9.7579,-0.0021999999999999997,-0.00030000000000000003,0.0229
0.5600140003500088,0.0018,0.48789999999999994,-9.7611,-0.0031,-0.00019999999999999998,0.0234
0.570014250356259,0.005399999999999999,0.4854,-9.7686,-0.0029,-0.00019999999999999998,0.0232
0.5800145003625091,0.029599999999999998,0.4928,-9.777800000000001,-0.0042,-9.999999999999999e-05,0.0229
0.5900147503687593,-0.004399999999999999,0.4897,-9.7728,-0.004399999999999999,0.00019999999999999998,0.0235
0.6000150003750094,-0.026600000000000002,0.5066,-9.7485,-0.0033,-0.00039999999999999996,0.023
0.6100152503812596,0.0146,0.4876,-9.7486,-0.004699999999999999,-0.0006000000000000001,0.023299999999999998
0.6200155003875097,-0.0009,0.4573,-9.7584,-0.004399999999999999,-0.0005,0.023
0.6300157503937599,0.0291,0.4817,-9.782599999999999,-0.005,-0.00019999999999999998,0.023
0.64001600040001,0.0007999999999999999,0.4993,-9.7919,-0.0052,-0.00019999999999999998,0.023299999999999998
0.6500162504062602,-0.016,0.4930999999999999,-9.766399999999999,-0.0042,-0.0009,0.022699999999999998
0.6600165004125104,-0.0024000000000000002,0.4806,-9.7592,-0.0053,-0.0009,0.0232
0.6700167504187605,0.0109,0.46399999999999997,-9.7517,-0.005399999999999999,-0.0007,0.023
0.6800170004250107,0.037899999999999996,0.47819999999999996,-9.7775,-0.0058,-0.00019999999999999998,0.0228
0.6900172504312608,-0.010799999999999999,0.46950000000000003,-9.7864,-0.005399999999999999,0.00030000000000000003,0.0234
0.700017500437511,-0.0203,0.5034000000000001,-9.769799999999998,-0.0038,-0.00030000000000000003,0.0232
0.7100177504437611,-0.0052,0.5047,-9.7666,-0.0052,-0.0007,0.023299999999999998
0.7200180004500113,0.0201,0.46690000000000004,-9.7659,-0.005,-0.0007999999999999999,0.0229
0.7300182504562615,0.022699999999999998,0.47540000000000004,-9.7749,-0.0055,-0.0005,0.0229
0.7400185004625116,-0.0076,0.4729,-9.783999999999999,-0.005399999999999999,0.0,0.023299999999999998
0.7500187504687618,-0.0050999999999999995,0.49979999999999997,-9.7803,-0.004,-0.00039999999999999996,0.0232
0.7600190004750119,-0.0126,0.4876,-9.7671,-0.005,-0.0006000000000000001,0.023
0.7700192504812621,0.0106,0.46290000000000003,-9.7628,-0.0050999999999999995,-0.0009,0.0232
0.7800195004875122,0.0358,0.47089999999999993,-9.796899999999999,-0.004699999999999999,-0.0005,0.0228
0.7900197504937624,-0.0182,0.4764,-9.777199999999999,-0.0045000000000000005,-0.00030000000000000003,0.023299999999999998
0.8000200005000125,0.0013,0.4904,-9.768699999999999,-0.003,-0.0006000000000000001,0.0232
0.8100202505062627,-0.0050999999999999995,0.49179999999999996,-9.7647,-0.0034999999999999996,-0.0007999999999999999,0.0231
0.8200205005125129,0.010199999999999999,0.4616,-9.766399999999999,-0.0045000000000000005,-0.0007,0.0231
0.830020750518763,0.0228,0.47369999999999995,-9.7755,-0.0049,-0.00039999999999999996,0.0231
0.8400210005250132,0.0014,0.46090000000000003,-9.7858,-0.0049,-9.999999999999999e-05,0.0232
0.8500212505312633,-0.00039999999999999996,0.47309999999999997,-9.7627,-0.0034,-0.0005,0.023299999999999998
0.8600215005375135,-0.0059,0.4658,-9.7555,-0.003,-0.0005,0.023
0.8700217505437636,0.014499999999999999,0.45380000000000004,-9.7701,-0.0031999999999999997,-0.0005,0.0232
0.8800220005500138,0.0211,0.47109999999999996,-9.7832,-0.0028,-0.00039999999999999996,0.023
0.8900222505562639,-0.0068,0.4895,-9.7753,-0.003,-0.00039999999999999996,0.0232
0.9000225005625141,0.0036999999999999997,0.48450000000000004,-9.7707,-0.0025,-0.0007999999999999999,0.0232
0.9100227505687642,-0.0142,0.48260000000000003,-9.758999999999999,-0.0025,-0.001,0.023
0.9200230005750144,0.0161,0.4632,-9.7534,-0.0036,-0.0010999999999999998,0.0231
0.9300232505812646,0.0257,0.45640000000000003,-9.781099999999999,-0.0031999999999999997,-0.0006000000000000001,0.0229
0.9400235005875147,-0.008799999999999999,0.4462,-9.780800000000001,-0.003,-0.00030000000000000003,0.023
0.9500237505937649,0.008,0.481,-9.7732,-0.0012000000000000001,-0.0006000000000000001,0.0234
0.9600240006000151,-0.0218,0.4811,-9.7578,-0.001,-0.0009,0.023
0.9700242506062653,0.0191,0.4567,-9.769400000000001,-0.0013,-0.0010999999999999998,0.0231
0.9800245006125154,0.0196,0.45979999999999993,-9.7781,-0.0010999999999999998,-0.0006000000000000001,0.0229
0.9900247506187656,-0.0086,0.471,-9.7691,-0.0013,-0.00039999999999999996,0.0231
1.0000250006250158,0.0036999999999999997,0.48269999999999996,-9.7714,-0.00039999999999999996,-0.0006000000000000001,0.0234
1.010025250631266,-0.0068,0.4647,-9.7677,-0.0007999999999999999,-0.0009,0.0229
1.020025500637516,0.0165,0.4413,-9.7729,-0.0007999999999999999,-0.001,0.0231
1.0300257506437662,0.007899999999999999,0.4655,-9.7665,-0.0005,-0.001,0.0229
1.0400260006500164,0.0179,0.46449999999999997,-9.7849,-0.0012000000000000001,-0.0007999999999999999,0.023
1.0500262506562665,-0.007899999999999999,0.47800000000000004,-9.7797,0.0006000000000000001,-0.0009,0.0232
1.0600265006625167,-0.0243,0.4963,-9.751999999999999,-0.0006000000000000001,-0.0013,0.023
1.0700267506687668,0.0191,0.4622,-9.7714,-0.0018,-0.0015999999999999999,0.0229
1.080027000675017,0.0257,0.45589999999999997,-9.777199999999999,-0.0018,-0.0010999999999999998,0.0228
1.0900272506812672,0.0033,0.4545,-9.79,-0.0019,-0.00039999999999999996,0.0229
1.1000275006875173,-0.0063999999999999994,0.47800000000000004,-9.7847,-0.0010999999999999998,-0.0007,0.023299999999999998
1.1100277506937675,-0.02,0.4844,-9.7671,-0.0015999999999999999,-0.0010999999999999998,0.0228
1.1200280007000176,0.0249,0.45979999999999993,-9.778,-0.0026,-0.0014,0.0229
1.1300282507062678,0.018000000000000002,0.4607,-9.7878,-0.0028,-0.001,0.022699999999999998
1.140028500712518,-0.0202,0.45599999999999996,-9.7802,-0.0034,-0.0006000000000000001,0.0229
1.150028750718768,0.005399999999999999,0.4783,-9.7723,-0.0023,-0.0009,0.0232
1.1600290007250182,-0.0144,0.4755,-9.7635,-0.0029,-0.0013,0.0226
1.1700292507312684,0.0123,0.4385,-9.782399999999999,-0.0034,-0.0015,0.0228
1.1800295007375186,0.014499999999999999,0.4567,-9.7749,-0.0029,-0.0013,0.0226
1.1900297507437687,0.004,0.4628,-9.780999999999999,-0.0034999999999999996,-0.0009,0.0228
1.2000300007500189,-0.014999999999999998,0.4662,-9.780800000000001,-0.0021,-0.0010999999999999998,0.0231
1.210030250756269,-0.0124,0.4655,-9.766,-0.0021,-0.0015,0.0226
1.2200305007625192,0.028499999999999998,0.45459999999999995,-9.7749,-0.0029,-0.0015999999999999999,0.022699999999999998
1.2300307507687693,0.0195,0.446,-9.7802,-0.0021,-0.0010999999999999998,0.0224
1.2400310007750195,-0.010799999999999999,0.4633,-9.7927,-0.0023,-0.0005,0.0228
1.2500312507812696,-0.009000000000000001,0.4797,-9.785,-0.0015,-0.0007999999999999999,0.0229
1.2600315007875198,-0.0201,0.47509999999999997,-9.7621,-0.0018,-0.0015999999999999999,0.022699999999999998
1.27003175079377,0.028499999999999998,0.44799999999999995,-9.7713,-0.0021999999999999997,-0.0017,0.0226
1.28003200080002,0.009899999999999999,0.44489999999999996,-9.7752,-0.0019,-0.0013,0.0224
1.2900322508062703,-0.0089,0.4658,-9.7798,-0.0023,-0.0009,0.0228
1.3000325008125204,-0.005399999999999999,0.4744,-9.7781,-0.0007999999999999999,-0.0012000000000000001,0.022699999999999998
1.3100327508187706,-0.0146,0.4784,-9.7758,-0.0015999999999999999,-0.0017,0.0225
1.3200330008250207,0.018000000000000002,0.4531,-9.782,-0.0021,-0.0018,0.0225
1.3300332508312709,0.0168,0.45319999999999994,-9.7779,-0.0015999999999999999,-0.0015999999999999999,0.0224
1.340033500837521,0.0036999999999999997,0.4543,-9.7749,-0.0021,-0.0010999999999999998,0.0225
1.3500337508437712,-0.0078,0.4679,-9.7679,-0.0013,-0.0013,0.0226
1.3600340008500214,-0.0166,0.45890000000000003,-9.7537,-0.0019,-0.0017,0.0224
1.3700342508562715,0.021599999999999998,0.4484,-9.7827,-0.0024000000000000002,-0.0015999999999999999,0.0224
1.3800345008625217,0.0107,0.4543,-9.7803,-0.0018,-0.0015,0.0222
1.3900347508687718,0.0010999999999999998,0.46199999999999997,-9.786,-0.002,-0.0012000000000000001,0.0225
1.400035000875022,-0.0103,0.4607,-9.7836,-0.0005,-0.0014,0.0226
1.4100352508812721,-0.0174,0.4635,-9.771199999999999,-0.0007,-0.0019,0.0224
1.4200355008875223,0.0262,0.4406,-9.7815,-0.0010999999999999998,-0.0021,0.0223
1.4300357508937724,0.0111,0.43499999999999994,-9.772699999999999,-9.999999999999999e-05,-0.0019,0.0219
1.4400360009000226,-0.008,0.4302,-9.7735,0.0005,-0.0013,0.0222
1.4500362509062728,-0.0036,0.4575,-9.7792,0.0025,-0.0015999999999999999,0.0225
1.460036500912523,-0.0162,0.4704,-9.768699999999999,0.0024000000000000002,-0.0021,0.0219
1.470036750918773,0.025,0.4463,-9.7858,0.0018,-0.0026,0.0219
1.4800370009250232,0.0139,0.44999999999999996,-9.799900000000001,0.0019,-0.002,0.0219
1.4900372509312734,-0.0066,0.46509999999999996,-9.7871,0.0015,-0.0013,0.0222
1.5000375009375235,0.0082,0.47609999999999997,-9.7942,0.0024000000000000002,-0.0014,0.0224
1.5100377509437737,-0.0184,0.4667,-9.7838,0.002,-0.0018,0.0221
1.5200380009500238,0.0167,0.4482,-9.7835,0.0018,-0.0019,0.0222
1.530038250956274,0.0009,0.4531,-9.7805,0.002,-0.0017,0.0219
1.5400385009625241,0.0125,0.46769999999999995,-9.8026,0.0013,-0.0013,0.0221
1.5500387509687743,-0.0055,0.47309999999999997,-9.7874,0.0025,-0.0015,0.0221
1.5600390009750245,-0.0249,0.47819999999999996,-9.7774,0.002,-0.0021999999999999997,0.022
1.5700392509812746,0.025599999999999998,0.45389999999999997,-9.7917,0.0009,-0.0024000000000000002,0.0219
1.5800395009875248,0.0246,0.46769999999999995,-9.8002,0.0010999999999999998,-0.0018,0.0218
1.590039750993775,-0.0059,0.461,-9.7929,0.00039999999999999996,-0.0015,0.021699999999999997
1.600040001000025,0.0012000000000000001,0.47819999999999996,-9.7903,0.0009,-0.0017,0.0223
1.6100402510062752,-0.0118,0.4786,-9.7832,0.00030000000000000003,-0.0017,0.022
1.6200405010125254,0.0277,0.4644,-9.802,-0.0007,-0.0018,0.0221
1.6300407510187755,0.0021999999999999997,0.4505,-9.797,-0.00019999999999999998,-0.0015,0.0219
1.6400410010250257,-0.0055,0.444,-9.7795,-0.0,-0.0013,0.022
1.6500412510312759,0.0118,0.45289999999999997,-9.779,0.0015999999999999999,-0.0014,0.0222
1.660041501037526,-0.0157,0.45659999999999995,-9.7794,0.0021999999999999997,-0.0015999999999999999,0.0218
1.6700417510437762,0.009600000000000001,0.443,-9.783,0.0024000000000000002,-0.002,0.0218
1.6800420010500263,0.013,0.44209999999999994,-9.7842,0.0029,-0.0019,0.021599999999999998
1.6900422510562765,0.0068,0.449,-9.800799999999999,0.0031,-0.0014,0.021599999999999998
1.7000425010625266,-0.007899999999999999,0.4789,-9.7868,0.0041,-0.0015999999999999999,0.0221
1.7100427510687768,-0.0092,0.4772,-9.781099999999999,0.0038,-0.002,0.021599999999999998
1.720043001075027,0.0213,0.4535,-9.787999999999998,0.0036999999999999997,-0.0021999999999999997,0.0219
1.730043251081277,0.014100000000000001,0.4725,-9.7838,0.0039,-0.0015999999999999999,0.0218
1.7400435010875273,0.0086,0.46290000000000003,-9.805,0.0031999999999999997,-0.0010999999999999998,0.0219
1.7500437510937774,-0.0115,0.47939999999999994,-9.785,0.0046,-0.0013,0.0222
1.7600440011000276,-0.0077,0.48510000000000003,-9.7807,0.0036,-0.0015999999999999999,0.0218
1.7700442511062777,0.0242,0.4556,-9.7973,0.0029,-0.002,0.0219
1.7800445011125279,0.0178,0.45830000000000004,-9.7937,0.0034999999999999996,-0.0017,0.0215
1.790044751118778,0.0007,0.46969999999999995,-9.7966,0.0034,-0.0012000000000000001,0.0218
1.8000450011250282,-0.0028,0.48390000000000005,-9.789200000000001,0.0041,-0.0015,0.022
1.8100452511312783,-0.0151,0.471,-9.7693,0.0043,-0.0019,0.0215
1.8200455011375285,0.0301,0.4656,-9.7922,0.0036999999999999997,-0.002,0.022
1.8300457511437787,0.0038,0.4687,-9.7997,0.004399999999999999,-0.0015,0.021599999999999998
1.8400460011500288,-0.0058,0.46259999999999996,-9.7918,0.0036,-0.0014,0.0219
1.850046251156279,0.0104,0.4795,-9.7884,0.005,-0.0015,0.0222
1.8600465011625291,-0.014999999999999998,0.49579999999999996,-9.7813,0.0045000000000000005,-0.0018,0.0219
1.8700467511687793,0.0338,0.46889999999999993,-9.7897,0.0031,-0.0019,0.022
1.8800470011750294,0.012799999999999999,0.46309999999999996,-9.7956,0.0036,-0.0014,0.021699999999999997
1.8900472511812796,0.0126,0.47609999999999997,-9.8049,0.0033,-0.0009,0.0219
1.9000475011875297,-0.0123,0.48329999999999995,-9.7821,0.0041,-0.0012000000000000001,0.0222
1.91004775119378,-0.0069,0.4753,-9.789299999999999,0.0041,-0.0017,0.021699999999999997
1.9200480012000303,0.0228,0.4698,-9.7839,0.0036999999999999997,-0.0018,0.0219
1.9300482512062804,0.0057,0.4659,-9.7917,0.004,-0.0015,0.021699999999999997
1.9400485012125306,0.016,0.4704,-9.8178,0.0033,-0.0010999999999999998,0.0218
1.9500487512187807,-0.004,0.5024,-9.8039,0.0043,-0.0012000000000000001,0.0224
1.960049001225031,-0.025599999999999998,0.506,-9.778599999999999,0.0034999999999999996,-0.002,0.021699999999999997
1.970049251231281,0.04,0.4661,-9.789100000000001,0.0021,-0.0023,0.0221
1.9800495012375312,0.0073,0.4491,-9.7896,0.0029,-0.0015,0.021599999999999998
1.9900497512437814,0.0065,0.44549999999999995,-9.7982,0.0026999999999999997,-0.001,0.022
2.0000500012500315,0.0028,0.4784,-9.7911,0.0049,-0.0012000000000000001,0.0223
2.0100502512562817,-0.0151,0.47089999999999993,-9.7752,0.0053,-0.0015999999999999999,0.021599999999999998
2.020050501262532,0.0183,0.46199999999999997,-9.7781,0.0050999999999999995,-0.002,0.022
2.030050751268782,0.0356,0.48050000000000004,-9.7935,0.0055,-0.0015,0.021599999999999998
2.040051001275032,0.0007,0.5028,-9.7953,0.004699999999999999,-0.0007999999999999999,0.022
2.0500512512812823,0.0042,0.5087999999999999,-9.798399999999999,0.0053,-0.0007999999999999999,0.0221
2.0600515012875324,-0.0144,0.5201,-9.8013,0.004,-0.0013,0.0221
2.0700517512937826,0.0076,0.4843,-9.8085,0.0024000000000000002,-0.0015,0.0221
2.0800520013000328,0.0264,0.4878,-9.8089,0.0023,-0.0014,0.0219
2.090052251306283,0.0034,0.483,-9.8058,0.0017,-0.001,0.0221
2.100052501312533,-0.0,0.506,-9.7866,0.0031,-0.0012000000000000001,0.0224
2.1100527513187832,-0.0226,0.5052,-9.7686,0.0025,-0.0015,0.0221
2.1200530013250334,0.0167,0.4806,-9.779599999999999,0.0014,-0.0019,0.0222
2.1300532513312835,0.0265,0.4719,-9.8093,0.0012000000000000001,-0.0015,0.0219
2.1400535013375337,0.0077,0.4967,-9.8123,0.0007999999999999999,-0.0013,0.0224
2.150053751343784,-0.005,0.5151,-9.785499999999999,0.0018,-0.0015999999999999999,0.0221
2.160054001350034,-0.0084,0.483,-9.7611,0.0007999999999999999,-0.002,0.0222
2.170054251356284,0.0222,0.4516,-9.768799999999999,0.0013,-0.0015,0.0224
2.1800545013625343,0.0196,0.4767,-9.7917,0.002,-0.001,0.0222
2.1900547513687845,0.0005,0.4743,-9.7947,0.0018,-0.0009,0.0224
2.2000550013750346,0.0021,0.484,-9.7856,0.0042,-0.0012000000000000001,0.0226
2.210055251381285,-0.0109,0.4915,-9.7795,0.0034,-0.0015,0.0222
2.220055501387535,0.0223,0.4856,-9.7707,0.0034999999999999996,-0.002,0.0224
2.230055751393785,0.0289,0.49179999999999996,-9.7911,0.0031999999999999997,-0.0015,0.0219
2.2400560014000352,-0.0058,0.4863,-9.8028,0.0026,-0.0009,0.022699999999999998
2.2500562514062854,-0.0015999999999999999,0.509,-9.7898,0.0038,-0.0014,0.0225
2.2600565014125356,-9.999999999999999e-05,0.5111,-9.801,0.0026,-0.0019,0.0223
2.2700567514187857,0.0052,0.4628,-9.7859,0.0028,-0.0021999999999999997,0.0223
2.280057001425036,0.0421,0.4846,-9.792,0.0031,-0.0017,0.0223
2.290057251431286,0.0021,0.4968,-9.8079,0.003,-0.0012000000000000001,0.0226
2.300057501437536,-0.0041,0.5093,-9.789499999999999,0.004,-0.0015,0.022699999999999998
2.3100577514437863,-0.007499999999999999,0.5136,-9.7829,0.0031,-0.0015999999999999999,0.0226
2.3200580014500365,0.0228,0.4949,-9.7936,0.002,-0.0017,0.0228
2.3300582514562866,0.029999999999999995,0.4914,-9.7944,0.0014,-0.0013,0.0225
2.340058501462537,0.0026999999999999997,0.4779,-9.8071,0.0012000000000000001,-0.0012000000000000001,0.022699999999999998
2.350058751468787,-0.0041,0.4852,-9.7752,0.003,-0.0018,0.022699999999999998
2.360059001475037,0.002,0.48019999999999996,-9.7669,0.0029,-0.0018,0.0226
2.3700592514812873,0.023299999999999998,0.4644,-9.7858,0.0034,-0.0017,0.0226
2.3800595014875374,0.0257,0.49119999999999997,-9.8068,0.0036999999999999997,-0.0015999999999999999,0.0224
2.3900597514937876,-0.0052,0.5009,-9.7884,0.0031999999999999997,-0.0014,0.0229
2.4000600015000377,0.0041,0.5156,-9.786499999999998,0.005,-0.0018,0.0226
2.410060251506288,-0.0073,0.502,-9.7798,0.0031,-0.0019,0.0228
2.420060501512538,0.0262,0.47080000000000005,-9.7833,0.0028,-0.0019,0.022699999999999998
2.430060751518788,0.0257,0.481,-9.8017,0.0028,-0.0014,0.0225
2.4400610015250384,-0.0015999999999999999,0.48139999999999994,-9.7946,0.0034,-0.0012000000000000001,0.023
2.4500612515312885,0.0034,0.4999,-9.789299999999999,0.005399999999999999,-0.0018,0.022699999999999998
2.4600615015375387,-0.0053,0.4909,-9.7691,0.0057,-0.002,0.0225
2.470061751543789,0.0179,0.4743,-9.765600000000001,0.0057,-0.0021,0.022699999999999998
2.480062001550039,0.033,0.47089999999999993,-9.7846,0.0058,-0.0017,0.0223
2.490062251556289,0.00030000000000000003,0.501,-9.796299999999999,0.0055,-0.0017,0.0229
2.5000625015625393,-0.0015,0.5039,-9.7815,0.0066,-0.0023,0.0224
2.5100627515687894,0.0063,0.5048,-9.7844,0.0055,-0.0026,0.0225
2.5200630015750396,0.009000000000000001,0.4906,-9.753499999999999,0.0045000000000000005,-0.0025,0.0224
2.5300632515812898,0.040299999999999996,0.48529999999999995,-9.7953,0.0036999999999999997,-0.0018,0.0226
2.54006350158754,-9.999999999999999e-05,0.5045,-9.8088,0.0038,-0.0015999999999999999,0.0229
2.55006375159379,-0.004,0.5154,-9.7881,0.0049,-0.0021,0.0224
2.56006400160004,0.0151,0.502,-9.7856,0.0036999999999999997,-0.0021999999999999997,0.022699999999999998
2.5700642516062904,0.0112,0.47679999999999995,-9.779599999999999,0.0036999999999999997,-0.0021,0.0224
2.5800645016125405,0.037599999999999995,0.48919999999999997,-9.7897,0.0031999999999999997,-0.0017,0.0224
2.5900647516187907,0.005,0.5068999999999999,-9.8096,0.0034999999999999996,-0.0015999999999999999,0.022699999999999998
2.600065001625041,-0.014100000000000001,0.5083,-9.7881,0.0046,-0.0023,0.0222
2.610065251631291,0.0056,0.48849999999999993,-9.7761,0.004,-0.0026999999999999997,0.0225
2.620065501637541,0.0174,0.4693,-9.7731,0.004699999999999999,-0.0026999999999999997,0.0222
2.6300657516437913,0.040299999999999996,0.48979999999999996,-9.8052,0.004699999999999999,-0.0023,0.0221
2.6400660016500415,-0.0062,0.49389999999999995,-9.7784,0.0050999999999999995,-0.0021999999999999997,0.0226
2.6500662516562916,0.0007,0.4974,-9.7873,0.0056,-0.0026999999999999997,0.0222
2.6600665016625418,0.0127,0.49579999999999996,-9.7941,0.0048000000000000004,-0.0026999999999999997,0.0225
2.670066751668792,0.0151,0.49529999999999996,-9.7972,0.005,-0.0024000000000000002,0.0222
2.680067001675042,0.0329,0.5032,-9.7994,0.0046,-0.0021999999999999997,0.022
2.6900672516812922,0.0034999999999999996,0.4954,-9.7729,0.0049,-0.0024000000000000002,0.0225
2.7000675016875424,-0.0077,0.504,-9.756499999999999,0.0063,-0.0026,0.0221
2.7100677516937925,0.015799999999999998,0.494,-9.7691,0.0057,-0.0025,0.0223
2.7200680017000427,0.0162,0.4772,-9.786200000000001,0.0062,-0.0021999999999999997,0.022
2.730068251706293,0.0284,0.49579999999999996,-9.8057,0.0060999999999999995,-0.0023,0.0218
2.740068501712543,0.0028,0.49760000000000004,-9.7834,0.006999999999999999,-0.0025,0.0221
2.750068751718793,-0.0069,0.501,-9.785,0.0084,-0.003,0.021699999999999997
2.7600690017250433,0.0191,0.507,-9.7797,0.007499999999999999,-0.0031999999999999997,0.022
2.7700692517312935,0.0226,0.5026,-9.799900000000001,0.0073999999999999995,-0.0026,0.0218
2.7800695017375436,0.0036999999999999997,0.5045,-9.7874,0.0069,-0.0025,0.021699999999999997
2.790069751743794,0.0167,0.5250999999999999,-9.7932,0.0073,-0.0026,0.0223
2.800070001750044,-0.0078,0.5378,-9.7804,0.0072,-0.0028,0.022
2.810070251756294,0.031599999999999996,0.5137,-9.7943,0.006,-0.0029,0.022
2.8200705017625443,0.0299,0.5027,-9.8163,0.005399999999999999,-0.0026999999999999997,0.0219
2.8300707517687944,-0.0041,0.5102,-9.789200000000001,0.0055,-0.0026,0.0218
2.8400710017750446,0.0215,0.5246999999999999,-9.7788,0.0063,-0.0026,0.0222
2.8500712517812947,-0.0053,0.5182,-9.7767,0.0068,-0.003,0.021699999999999997
2.860071501787545,0.025500000000000002,0.5172,-9.7763,0.0065,-0.0031999999999999997,0.0219
2.870071751793795,0.029599999999999998,0.5218,-9.8001,0.0063,-0.0028,0.0215
2.880072001800045,0.012899999999999998,0.5139,-9.8016,0.0053,-0.0026,0.0218
2.8900722518062953,0.018699999999999998,0.5381,-9.7929,0.0058,-0.0026999999999999997,0.0222
2.9000725018125455,-0.012199999999999999,0.5412,-9.783999999999999,0.005399999999999999,-0.0031,0.0219
2.9100727518187957,0.0338,0.5146000000000001,-9.7943,0.0043,-0.0033,0.0221
2.920073001825046,0.0336,0.525,-9.7883,0.0045000000000000005,-0.0029,0.0219
2.930073251831296,0.013,0.5226,-9.7995,0.0043,-0.0025,0.0219
2.940073501837546,0.0049,0.5249,-9.7704,0.005399999999999999,-0.0025,0.0223
2.9500737518437963,0.0111,0.5246,-9.781099999999999,0.0053,-0.0029,0.0219
2.9600740018500464,0.035199999999999995,0.5163,-9.8102,0.004699999999999999,-0.0029,0.022
2.9700742518562966,0.012899999999999998,0.5141,-9.809,0.0045000000000000005,-0.0026999999999999997,0.021699999999999997
2.9800745018625467,0.0276,0.5317,-9.802900000000001,0.0039,-0.0025,0.0219
2.990074751868797,0.0107,0.5397,-9.7873,0.005,-0.0028,0.022
3.000075001875047,-0.0031,0.5132,-9.786200000000001,0.0046,-0.0029,0.021699999999999997
3.010075251881297,0.033100000000000004,0.4952,-9.7991,0.005,-0.0031,0.0219
3.0200755018875474,0.031,0.49639999999999995,-9.7989,0.006,-0.0029,0.0215
3.0300757518937975,0.0195,0.4874,-9.799299999999999,0.0067,-0.0025,0.021699999999999997
3.0400760019000477,0.0073999999999999995,0.5396,-9.7902,0.008799999999999999,-0.0029,0.0222
3.050076251906298,-0.0036,0.5443,-9.7707,0.0072,-0.0031999999999999997,0.021599999999999998
3.060076501912548,0.0378,0.49979999999999997,-9.7715,0.0071,-0.0034,0.0218
3.070076751918798,0.0355,0.5087999999999999,-9.789299999999999,0.007499999999999999,-0.0028,0.0215
3.0800770019250483,0.0181,0.5246999999999999,-9.802299999999999,0.0073999999999999995,-0.0021999999999999997,0.0218
3.0900772519312985,0.0183,0.5329,-9.803099999999999,0.0093,-0.0026,0.0215
3.1000775019375486,0.0066,0.5109,-9.796899999999999,0.0084,-0.0026,0.0211
3.1100777519437988,0.0184,0.48869999999999997,-9.7831,0.0082,-0.0029,0.0213
3.120078001950049,0.0523,0.5106,-9.8104,0.007899999999999999,-0.0024000000000000002,0.020900000000000002
3.130078251956299,0.012899999999999998,0.5336,-9.821399999999999,0.0073999999999999995,-0.0021,0.0212
3.1400785019625492,0.005399999999999999,0.5452,-9.7819,0.0086,-0.0025,0.0212
3.1500787519687994,0.0106,0.5467,-9.7601,0.0071,-0.0031999999999999997,0.021
3.1600790019750495,0.024,0.5115999999999999,-9.786200000000001,0.0069,-0.0031999999999999997,0.0212
3.1700792519812997,0.045899999999999996,0.5367000000000001,-9.8105,0.0067,-0.0025,0.021
3.18007950198755,0.0197,0.5627,-9.8193,0.006,-0.0023,0.0214
3.1900797519938,0.0063,0.5569,-9.7944,0.0062,-0.003,0.020900000000000002
3.20008000200005,0.0107,0.5505,-9.7958,0.0046,-0.003,0.021
3.2100802520063003,0.0375,0.5206,-9.7937,0.0039,-0.0026999999999999997,0.020900000000000002
3.2200805020125505,0.052899999999999996,0.5455,-9.8028,0.0038,-0.0021999999999999997,0.0206
3.2300807520188006,0.0089,0.5515,-9.7922,0.0031999999999999997,-0.0018,0.0212
3.240081002025051,0.00039999999999999996,0.5634,-9.787700000000001,0.0046,-0.0021999999999999997,0.0207
3.250081252031301,0.013699999999999999,0.563,-9.7817,0.0026,-0.0024000000000000002,0.020900000000000002
3.260081502037551,0.033100000000000004,0.5294,-9.7851,0.0015999999999999999,-0.0026,0.0207
3.2700817520438012,0.0504,0.5273,-9.806199999999999,0.0013,-0.0024000000000000002,0.0205
3.2800820020500514,0.0165,0.5453,-9.7864,0.0014,-0.0023,0.0211
3.2900822520563016,0.0081,0.5551999999999999,-9.7828,0.0028,-0.0026,0.0207
3.3000825020625517,0.0219,0.5482,-9.7887,0.0018,-0.0026999999999999997,0.020900000000000002
3.310082752068802,0.021,0.5329,-9.7859,0.0010999999999999998,-0.0026,0.0208
3.320083002075052,0.053399999999999996,0.5401,-9.7902,0.0009,-0.0024000000000000002,0.0205
3.330083252081302,0.024399999999999998,0.5492999999999999,-9.7843,0.0015999999999999999,-0.0023,0.020900000000000002
3.3400835020875523,0.0063,0.5478000000000001,-9.7869,0.0023,-0.0021999999999999997,0.020399999999999998
3.3500837520938025,0.0242,0.5369999999999999,-9.7854,0.0014,-0.0024000000000000002,0.0207
3.3600840021000526,0.0324,0.5277999999999999,-9.7907,0.0017,-0.0023,0.020399999999999998
3.370084252106303,0.0392,0.5393,-9.7866,0.0012000000000000001,-0.0021999999999999997,0.0202
3.380084502112553,0.0239,0.5396,-9.7951,0.0010999999999999998,-0.0019,0.020399999999999998
3.390084752118803,-0.00030000000000000003,0.5460999999999999,-9.7883,0.0015,-0.0023,0.0202
3.4000850021250533,0.0276,0.5498000000000001,-9.796299999999999,0.0006000000000000001,-0.0025,0.0205
3.4100852521313034,0.0277,0.5425,-9.8002,0.00030000000000000003,-0.0026,0.020399999999999998
3.4200855021375536,0.0397,0.5474,-9.7926,-0.00019999999999999998,-0.0025,0.0202
3.4300857521438037,0.021699999999999997,0.5614,-9.7792,0.00030000000000000003,-0.0023,0.0207
3.440086002150054,-0.0015,0.5448,-9.779300000000001,0.00030000000000000003,-0.0023,0.0202
3.450086252156304,0.0443,0.5209,-9.7956,0.00030000000000000003,-0.0024000000000000002,0.020399999999999998
3.460086502162554,0.0194,0.5311,-9.795399999999999,0.0006000000000000001,-0.0021999999999999997,0.0201
3.4700867521688044,0.0322,0.5308,-9.797,0.00030000000000000003,-0.0023,0.02
3.4800870021750545,0.037399999999999996,0.5534,-9.7827,0.0015,-0.0021999999999999997,0.0202
3.4900872521813047,-0.004699999999999999,0.5622,-9.7705,0.0014,-0.0023,0.019799999999999998
3.500087502187555,0.0386,0.5365,-9.778,0.0007,-0.0025,0.0203
3.510087752193805,0.0348,0.5456,-9.7818,0.0010999999999999998,-0.0021,0.0199
3.520088002200055,0.037399999999999996,0.5535,-9.8001,0.0006000000000000001,-0.0019,0.0202
3.5300882522063053,0.024,0.555,-9.794799999999999,0.0017,-0.002,0.0203
3.5400885022125554,-0.004399999999999999,0.5584,-9.778,0.001,-0.0024000000000000002,0.0201
3.5500887522188056,0.0494,0.5357999999999999,-9.7897,0.0,-0.0026,0.0202
3.5600890022250558,0.0414,0.5613,-9.777800000000001,0.00019999999999999998,-0.0023,0.02
3.570089252231306,0.0221,0.5444,-9.7921,-0.0007,-0.002,0.019799999999999998
3.580089502237556,0.0226,0.5563,-9.7707,0.00019999999999999998,-0.0021999999999999997,0.0202
3.590089752243806,0.007899999999999999,0.5613,-9.7728,-0.00039999999999999996,-0.0023,0.019799999999999998
3.6000900022500564,0.045899999999999996,0.5465,-9.7923,-0.0010999999999999998,-0.0025,0.0199
3.6100902522563065,0.029300000000000003,0.5326,-9.7835,-0.0007,-0.0025,0.0196
3.6200905022625567,0.0343,0.5378,-9.797799999999999,-0.0015,-0.002,0.019799999999999998
3.630090752268807,0.0195,0.5601,-9.7872,-0.00019999999999999998,-0.0021,0.02
3.640091002275057,-0.0029,0.5692,-9.762899999999998,-0.0010999999999999998,-0.0023,0.019799999999999998
3.650091252281307,0.053399999999999996,0.5539999999999999,-9.7854,-0.0019,-0.0025,0.02
3.6600915022875573,0.0467,0.5448999999999999,-9.7966,-0.0028,-0.0021999999999999997,0.0195
3.6700917522938075,0.025500000000000002,0.5437,-9.8001,-0.0039,-0.0018,0.02
3.6800920023000576,0.0193,0.5591999999999999,-9.7871,-0.0021,-0.0021,0.019799999999999998
3.6900922523063078,0.0039,0.5559,-9.7628,-0.0024000000000000002,-0.0025,0.0196
3.700092502312558,0.034,0.5204,-9.766399999999999,-0.0026999999999999997,-0.0025,0.0196
3.710092752318808,0.052199999999999996,0.5371,-9.7758,-0.0021999999999999997,-0.0024000000000000002,0.0195
3.7200930023250582,0.028999999999999998,0.5720000000000001,-9.7986,-0.0025,-0.0018,0.019799999999999998
3.7300932523313084,0.0123,0.5714,-9.792,-0.0019,-0.0021999999999999997,0.0195
3.7400935023375586,0.00039999999999999996,0.5642,-9.7762,-0.0034999999999999996,-0.0028,0.0196
3.7500937523438087,0.0518,0.5341,-9.7866,-0.0042,-0.0026999999999999997,0.0195
3.760094002350059,0.0503,0.5407000000000001,-9.7888,-0.0036,-0.0023,0.0194
3.770094252356309,0.0203,0.5554,-9.782499999999999,-0.0042,-0.0018,0.0197
3.780094502362559,0.0184,0.5509,-9.7835,-0.003,-0.002,0.0196
3.7900947523688093,0.0193,0.5591999999999999,-9.7734,-0.0034,-0.002,0.0197
3.8000950023750595,0.0327,0.5413,-9.786200000000001,-0.004,-0.0021,0.0195
3.8100952523813096,0.0549,0.5425,-9.8027,-0.0042,-0.002,0.0195
3.82009550238756,0.026,0.5732,-9.8013,-0.0042,-0.0018,0.019799999999999998
3.83009575239381,0.0183,0.5701999999999999,-9.8009,-0.0038,-0.0021999999999999997,0.0194
3.8400960024000605,0.0197,0.5625,-9.7749,-0.0049,-0.0024000000000000002,0.0197
3.8500962524063107,0.0283,0.5321,-9.773,-0.0046,-0.0021999999999999997,0.0194
3.860096502412561,0.0656,0.5573,-9.8064,-0.0052,-0.0017,0.0196
3.870096752418811,0.0146,0.5520999999999999,-9.806099999999999,-0.005,-0.0013,0.0197
3.880097002425061,0.0048000000000000004,0.551,-9.782,-0.0041,-0.0021999999999999997,0.0195
3.8900972524313113,0.0157,0.5273,-9.7684,-0.0043,-0.0026,0.0196
3.9000975024375615,0.0414,0.5125,-9.7697,-0.0036,-0.0023,0.0194
3.9100977524438116,0.0491,0.5392,-9.7738,-0.0033,-0.002,0.0193
3.920098002450062,0.0326,0.5303,-9.7847,-0.0021999999999999997,-0.0018,0.0196
3.930098252456312,0.022699999999999998,0.561,-9.7896,-0.0007999999999999999,-0.002,0.0196
3.940098502462562,0.009399999999999999,0.5621,-9.773299999999999,-0.0017,-0.0019,0.0195
3.9500987524688123,0.0406,0.5361,-9.780800000000001,-0.0017,-0.002,0.0197
3.9600990024750624,0.0572,0.5509,-9.7951,-0.0021999999999999997,-0.0015,0.0194
3.9700992524813126,0.0291,0.5456,-9.7812,-0.0024000000000000002,-0.0013,0.0197
3.9800995024875627,0.012199999999999999,0.5646,-9.7704,-0.0013,-0.0015999999999999999,0.0196
3.990099752493813,0.028200000000000003,0.5575,-9.77,-0.0018,-0.0018,0.0194
4.000100002500063,0.0299,0.5292,-9.7725,-0.0025,-0.002,0.0195
4.010100252506313,0.05330000000000001,0.536,-9.794899999999998,-0.0028,-0.0015999999999999999,0.0193
4.020100502512563,0.0277,0.5699,-9.808,-0.0026,-0.0015999999999999999,0.0196
4.0301007525188135,0.0012000000000000001,0.5821,-9.7788,-0.002,-0.0021,0.0193
4.040101002525064,0.0317,0.5488999999999999,-9.7635,-0.0034999999999999996,-0.0025,0.0196
4.050101252531314,0.0395,0.5206999999999999,-9.7768,-0.0034,-0.0021,0.0196
4.060101502537564,0.0498,0.5546,-9.7923,-0.0036999999999999997,-0.0015,0.0197
4.070101752543814,0.038900000000000004,0.5625,-9.786999999999999,-0.0034999999999999996,-0.0012000000000000001,0.0199
4.080102002550064,0.004,0.5472999999999999,-9.7918,-0.0025,-0.0015999999999999999,0.0195
4.090102252556314,0.0206,0.5458,-9.7843,-0.0031999999999999997,-0.0017,0.0199
4.100102502562565,0.034699999999999995,0.5507,-9.768,-0.0036999999999999997,-0.0017,0.0196
4.110102752568815,0.06319999999999999,0.5444,-9.807,-0.0048000000000000004,-0.0010999999999999998,0.0195
4.120103002575065,0.0152,0.5505,-9.7763,-0.0043,-0.0010999999999999998,0.0199
4.130103252581315,-0.0021999999999999997,0.5598,-9.7607,-0.0039,-0.0017,0.0195
4.140103502587565,0.0453,0.5420999999999999,-9.777199999999999,-0.004399999999999999,-0.0019,0.019799999999999998
4.150103752593815,0.0335,0.5134,-9.786999999999999,-0.0039,-0.0015999999999999999,0.0193
4.1601040026000655,0.0442,0.5408999999999999,-9.8048,-0.0045000000000000005,-0.0015,0.0195
4.170104252606316,0.0248,0.5492,-9.7838,-0.0039,-0.0015999999999999999,0.0197
4.180104502612566,0.0098,0.5485,-9.7695,-0.0026999999999999997,-0.002,0.0195
4.190104752618816,0.0439,0.532,-9.7722,-0.004,-0.0018,0.0196
4.200105002625066,0.0312,0.5306,-9.7728,-0.0041,-0.0012000000000000001,0.0197
4.210105252631316,0.0536,0.5431,-9.7791,-0.004399999999999999,-0.001,0.0195
4.2201055026375665,0.0292,0.5395,-9.787999999999998,-0.0043,-0.001,0.0201
4.230105752643817,0.005399999999999999,0.5538000000000001,-9.777800000000001,-0.0031,-0.0013,0.0196
4.240106002650067,0.033,0.5507,-9.7828,-0.0043,-0.0015999999999999999,0.0199
4.250106252656317,0.0393,0.5276000000000001,-9.7748,-0.0042,-0.0015999999999999999,0.0196
4.260106502662567,0.0477,0.5443,-9.7776,-0.004,-0.0013,0.0195
4.270106752668817,0.0202,0.5529,-9.7738,-0.0039,-0.001,0.0199
4.280107002675067,0.0063999999999999994,0.5434,-9.7729,-0.0029,-0.0014,0.0195
4.2901072526813175,0.043,0.5448999999999999,-9.7913,-0.0039,-0.0015,0.019799999999999998
4.300107502687568,0.0173,0.5440999999999999,-9.7667,-0.004,-0.0018,0.0196
4.310107752693818,0.0492,0.5305,-9.779599999999999,-0.0046,-0.0015999999999999999,0.0193
4.320108002700068,0.0349,0.5377,-9.777099999999999,-0.0036999999999999997,-0.0014,0.0201
4.330108252706318,0.001,0.549,-9.760299999999999,-0.0033,-0.0015,0.0195
4.340108502712568,0.049499999999999995,0.5309,-9.7759,-0.0038,-0.0017,0.0199
4.3501087527188185,0.0386,0.5264,-9.7695,-0.0036,-0.0015,0.0197
4.360109002725069,0.0349,0.5341,-9.778,-0.0036,-0.001,0.0196
4.370109252731319,0.0249,0.5477,-9.7747,-0.0031999999999999997,-0.0010999999999999998,0.0201
4.380109502737569,0.008799999999999999,0.528,-9.7608,-0.0028,-0.0015,0.0195
4.390109752743819,0.0561,0.5342,-9.7784,-0.003,-0.0018,0.02
4.400110002750069,0.030299999999999997,0.5443,-9.7752,-0.003,-0.0015,0.0194
4.410110252756319,0.0223,0.5043,-9.7693,-0.003,-0.0013,0.0195
4.42011050276257,0.0387,0.5435,-9.7745,-0.0015,-0.0014,0.02
4.43011075276882,0.002,0.5428,-9.7716,-0.0015999999999999999,-0.0015999999999999999,0.0194
4.44011100277507,0.0431,0.5359,-9.769,-0.0021999999999999997,-0.0021,0.019799999999999998
4.45011125278132,0.0435,0.5372,-9.786200000000001,-0.0025,-0.0015999999999999999,0.0195
4.46011150278757,0.035199999999999995,0.5296000000000001,-9.7903,-0.0031,-0.0012000000000000001,0.0196
4.47011175279382,0.0161,0.5646,-9.7768,-0.0026,-0.0013,0.0201
4.4801120028000705,0.0117,0.5569,-9.7662,-0.0028,-0.0018,0.0197
4.490112252806321,0.0494,0.5222,-9.782599999999999,-0.0031999999999999997,-0.002,0.019799999999999998
4.500112502812571,0.031799999999999995,0.5339,-9.7627,-0.0031,-0.0013,0.019799999999999998
4.510112752818821,0.039,0.5328,-9.785,-0.0031999999999999997,-0.001,0.019799999999999998
4.520113002825071,0.0214,0.5557,-9.7791,-0.0029,-0.0010999999999999998,0.0201
4.530113252831321,0.0161,0.5375,-9.767199999999999,-0.0029,-0.0017,0.0196
4.540113502837571,0.046,0.5250999999999999,-9.7867,-0.0031999999999999997,-0.0021999999999999997,0.019799999999999998
4.550113752843822,0.023,0.5201,-9.7614,-0.0025,-0.0018,0.0196
4.560114002850072,0.0528,0.5327,-9.7792,-0.0029,-0.0015,0.019799999999999998
4.570114252856322,0.0206,0.5479,-9.7556,-0.0017,-0.0015,0.02
4.580114502862572,0.0083,0.5385,-9.7692,-0.0021,-0.0017,0.019799999999999998
4.590114752868822,0.0449,0.5337999999999999,-9.777800000000001,-0.0033,-0.0019,0.0201
4.600115002875072,0.05159999999999999,0.5329999999999999,-9.7957,-0.0033,-0.0014,0.0199
4.6101152528813225,0.029999999999999995,0.5355,-9.7976,-0.0034,-0.0013,0.02
4.620115502887573,0.026600000000000002,0.5474,-9.7713,-0.003,-0.0014,0.0203
4.630115752893823,0.0091,0.5332,-9.7479,-0.0031999999999999997,-0.0017,0.0199
4.640116002900073,0.0478,0.526,-9.773900000000001,-0.0034999999999999996,-0.0015999999999999999,0.0201
4.650116252906323,0.0343,0.5309,-9.7763,-0.0036999999999999997,-0.001,0.019799999999999998
4.660116502912573,0.035199999999999995,0.5344,-9.7918,-0.004399999999999999,-0.0012000000000000001,0.0199
4.670116752918823,0.0179,0.5368,-9.7821,-0.0036,-0.0017,0.0202
4.680117002925074,0.012799999999999999,0.5371,-9.7638,-0.0036999999999999997,-0.0021999999999999997,0.0197
4.690117252931324,0.0589,0.5243,-9.7827,-0.004699999999999999,-0.0021999999999999997,0.0199
4.700117502937574,0.0413,0.5075999999999999,-9.7744,-0.0043,-0.0017,0.0197
4.710117752943824,0.0195,0.5139,-9.7632,-0.004,-0.0013,0.02
4.720118002950074,0.0392,0.5446,-9.7734,-0.0031999999999999997,-0.0014,0.020399999999999998
4.730118252956324,0.007499999999999999,0.5397,-9.7717,-0.0034,-0.0017,0.019799999999999998
4.7401185029625745,0.051500000000000004,0.5186,-9.7779,-0.004399999999999999,-0.0019,0.0201
4.750118752968825,0.0385,0.5186999999999999,-9.7798,-0.0045000000000000005,-0.0015,0.0197
4.760119002975075,0.021699999999999997,0.5189,-9.771799999999999,-0.004699999999999999,-0.0013,0.02
4.770119252981325,0.0373,0.5289,-9.7671,-0.0031,-0.0010999999999999998,0.0202
4.780119502987575,0.0012000000000000001,0.5256000000000001,-9.766399999999999,-0.0029,-0.0015,0.0197
4.790119752993825,0.0369,0.5028,-9.7705,-0.0031,-0.0019,0.0199
4.8001200030000755,0.0467,0.5178999999999999,-9.774199999999999,-0.0024000000000000002,-0.0018,0.0195
4.810120253006326,0.0215,0.5285,-9.7968,-0.0028,-0.0014,0.0197
4.820120503012576,0.0235,0.5456,-9.758799999999999,-0.0017,-0.0015999999999999999,0.0201
4.830120753018826,0.0151,0.5515,-9.778,-0.0026999999999999997,-0.002,0.0199
4.840121003025076,0.0404,0.5329999999999999,-9.770299999999999,-0.0039,-0.0021999999999999997,0.02
4.850121253031326,0.0585,0.5223,-9.7947,-0.0042,-0.0015999999999999999,0.019799999999999998
4.860121503037576,0.019799999999999998,0.5121,-9.778,-0.0045000000000000005,-0.0012000000000000001,0.0201
4.8701217530438266,0.0278,0.5245,-9.7737,-0.0034999999999999996,-0.0015,0.0202
4.880122003050077,0.010799999999999999,0.5293,-9.7585,-0.0033,-0.0018,0.019799999999999998
4.890122253056327,0.0402,0.5093,-9.7624,-0.0036,-0.0021,0.0199
4.900122503062577,0.054799999999999995,0.511,-9.7795,-0.0034999999999999996,-0.0017,0.0197
4.910122753068827,0.0126,0.5153,-9.7689,-0.0034,-0.0013,0.019799999999999998
4.920123003075077,0.033100000000000004,0.5431,-9.7746,-0.0021999999999999997,-0.0015,0.0202
4.9301232530813275,0.005,0.5304,-9.7596,-0.003,-0.002,0.019799999999999998
4.940123503087578,0.052700000000000004,0.4995,-9.7749,-0.0031,-0.0023,0.019799999999999998
4.950123753093828,0.0446,0.5055999999999999,-9.7784,-0.0026,-0.0018,0.0197
4.960124003100078,0.016,0.5011,-9.7671,-0.0023,-0.0015,0.02
4.970124253106328,0.030699999999999998,0.5191,-9.7652,-0.00039999999999999996,-0.0017,0.0202
4.980124503112578,0.0042,0.5179999999999999,-9.7531,-0.0005,-0.0021,0.019799999999999998
4.990124753118828,0.052,0.4993,-9.7686,-0.0006000000000000001,-0.0023,0.0199
5.000125003125079,0.0523,0.5101,-9.7743,-0.00030000000000000003,-0.0021,0.0196
5.010125253131329,0.027099999999999996,0.5072,-9.7835,-0.0007,-0.0015,0.019799999999999998
5.020125503137579,0.027999999999999997,0.5322,-9.7725,0.0009,-0.0018,0.0201
5.030125753143829,0.0018,0.5288,-9.7598,0.00039999999999999996,-0.0021999999999999997,0.0197
5.040126003150079,0.048999999999999995,0.5046,-9.7598,-0.00039999999999999996,-0.0026,0.019799999999999998
5.050126253156329,0.06269999999999999,0.5132,-9.7916,-0.00019999999999999998,-0.002,0.0196
5.0601265031625795,0.021599999999999998,0.5142,-9.7768,-0.00039999999999999996,-0.0014,0.019799999999999998
5.07012675316883,0.0203,0.5337,-9.7615,0.0010999999999999998,-0.0018,0.0202
5.08012700317508,0.0107,0.5298999999999999,-9.7555,0.00019999999999999998,-0.0024000000000000002,0.0197
5.09012725318133,0.0518,0.5048,-9.7789,-0.0007,-0.0024000000000000002,0.0199
5.10012750318758,0.0443,0.5151,-9.7785,-0.0007,-0.0021,0.0196
5.11012775319383,0.017499999999999998,0.5151,-9.7838,-0.0007999999999999999,-0.0019,0.0197
5.12012800320008,0.0212,0.5290999999999999,-9.764899999999999,0.00019999999999999998,-0.0023,0.0201
5.130128253206331,0.0213,0.5254,-9.7571,-0.00030000000000000003,-0.0024000000000000002,0.0196
5.140128503212581,0.05159999999999999,0.5028,-9.779599999999999,-0.001,-0.0026,0.0197
5.150128753218831,0.036000000000000004,0.5085,-9.7668,-0.0006000000000000001,-0.0023,0.0194
5.160129003225081,0.031599999999999996,0.5046,-9.765699999999999,-0.0009,-0.0021,0.0196
5.170129253231331,0.027,0.5321,-9.772599999999999,0.0006000000000000001,-0.0021,0.0201
5.180129503237581,0.0043,0.536,-9.764000000000001,-9.999999999999999e-05,-0.0021999999999999997,0.0196
5.1901297532438315,0.0607,0.5078,-9.7938,-0.0014,-0.0025,0.019799999999999998
5.200130003250082,0.051000000000000004,0.5068999999999999,-9.792,-0.0015,-0.0021999999999999997,0.0194
5.210130253256332,0.0189,0.5212,-9.7807,-0.0018,-0.002,0.019799999999999998
5.220130503262582,0.0327,0.5309999999999999,-9.77,-0.0007,-0.0023,0.019799999999999998
5.230130753268832,0.0007999999999999999,0.5298999999999999,-9.754,-0.0009,-0.0025,0.0196
5.240131003275082,0.053,0.49699999999999994,-9.7745,-0.0015999999999999999,-0.0024000000000000002,0.0196
5.2501312532813325,0.052899999999999996,0.5096999999999999,-9.7943,-0.0014,-0.0021999999999999997,0.0194
5.260131503287583,0.0284,0.5221,-9.801,-0.0019,-0.0018,0.019799999999999998
5.270131753293833,0.0262,0.5457,-9.7956,-0.001,-0.0021999999999999997,0.0197
5.280132003300083,0.0048000000000000004,0.5348,-9.7546,-0.0019,-0.0028,0.0197
5.290132253306333,0.05159999999999999,0.505,-9.7623,-0.0026,-0.0026999999999999997,0.0195
5.300132503312583,0.053799999999999994,0.4923,-9.7837,-0.003,-0.002,0.0195
5.310132753318833,0.0276,0.5041,-9.7903,-0.0028,-0.0015,0.019799999999999998
5.3201330033250835,0.0262,0.5186,-9.7831,-0.0013,-0.0019,0.0197
5.330133253331334,0.021599999999999998,0.5174,-9.7701,-0.002,-0.0025,0.0195
5.340133503337584,0.0365,0.48619999999999997,-9.7638,-0.0021999999999999997,-0.0026999999999999997,0.0193
5.350133753343834,0.055099999999999996,0.502,-9.7716,-0.0025,-0.0023,0.0195
5.360134003350084,0.037399999999999996,0.5211,-9.7987,-0.0029,-0.0018,0.0195
5.370134253356334,0.0135,0.5174,-9.7711,-0.0018,-0.0021,0.0195
5.3801345033625845,0.0166,0.5139999999999999,-9.7601,-0.0025,-0.0025,0.0194
5.390134753368835,0.0482,0.4775,-9.7729,-0.0026999999999999997,-0.0026,0.019200000000000002
5.400135003375085,0.050199999999999995,0.4934,-9.7754,-0.0021999999999999997,-0.0021,0.019200000000000002
5.410135253381335,0.0339,0.49979999999999997,-9.810099999999998,-0.0018,-0.0015999999999999999,0.019200000000000002
5.420135503387585,0.009000000000000001,0.5284,-9.772400000000001,-9.999999999999999e-05,-0.0019,0.0196
5.430135753393835,0.0249,0.5369999999999999,-9.7715,-0.0010999999999999998,-0.0024000000000000002,0.019200000000000002
5.440136003400085,0.044700000000000004,0.5213,-9.7875,-0.0024000000000000002,-0.0025,0.0193
5.450136253406336,0.0472,0.5076999999999999,-9.7803,-0.0026,-0.002,0.019
5.460136503412586,0.0357,0.5146999999999999,-9.7914,-0.0031,-0.0018,0.0194
5.470136753418836,0.027399999999999997,0.5146000000000001,-9.769799999999998,-0.0018,-0.0021999999999999997,0.0194
5.480137003425086,0.0203,0.5091,-9.7701,-0.0024000000000000002,-0.0021,0.0191
5.490137253431336,0.034,0.49439999999999995,-9.7767,-0.0025,-0.0021999999999999997,0.0194
5.500137503437586,0.0523,0.508,-9.789200000000001,-0.0025,-0.0021999999999999997,0.019
5.5101377534438365,0.028999999999999998,0.5272,-9.7929,-0.003,-0.002,0.0193
5.520138003450087,0.0248,0.5332,-9.7803,-0.0021999999999999997,-0.0021999999999999997,0.019200000000000002
5.530138253456337,0.0208,0.517,-9.765699999999999,-0.0034,-0.0024000000000000002,0.019200000000000002
5.540138503462587,0.0531,0.5056999999999999,-9.7654,-0.0041,-0.0024000000000000002,0.0195
5.550138753468837,0.0621,0.5139,-9.7884,-0.0042,-0.0018,0.019
5.560139003475087,0.0186,0.5022,-9.7881,-0.0045000000000000005,-0.0014,0.0195
5.570139253481337,0.023299999999999998,0.5147999999999999,-9.7799,-0.0031,-0.0019,0.0195
5.580139503487588,0.0213,0.5246999999999999,-9.7651,-0.0041,-0.0021999999999999997,0.0193
5.590139753493838,0.0473,0.4844,-9.7686,-0.0036999999999999997,-0.0025,0.019200000000000002
5.600140003500088,0.0536,0.4792,-9.777,-0.0028,-0.0021,0.0189
5.610140253506338,0.0313,0.4878,-9.7813,-0.003,-0.0017,0.0193
5.620140503512588,0.030899999999999997,0.5203,-9.782399999999999,-0.0014,-0.002,0.019200000000000002
5.630140753518838,0.0124,0.5341,-9.766,-0.0021999999999999997,-0.0024000000000000002,0.0191
5.6401410035250885,0.051199999999999996,0.48849999999999993,-9.7822,-0.0033,-0.0025,0.019
5.650141253531339,0.059000000000000004,0.5203,-9.788499999999999,-0.0034,-0.0021,0.0193
5.660141503537589,0.0249,0.5270999999999999,-9.7836,-0.0041,-0.0017,0.0193
5.670141753543839,0.030299999999999997,0.5137,-9.7717,-0.0024000000000000002,-0.0021,0.0195
5.680142003550089,0.0173,0.5054000000000001,-9.7524,-0.003,-0.0021999999999999997,0.0194
5.690142253556339,0.057999999999999996,0.487,-9.7676,-0.0034999999999999996,-0.0021,0.0194
5.7001425035625894,0.0621,0.5078,-9.810599999999999,-0.0036999999999999997,-0.0017,0.0191
5.71014275356884,0.0106,0.5127999999999999,-9.7996,-0.0041,-0.0015999999999999999,0.019200000000000002
5.72014300357509,0.0247,0.5174,-9.7785,-0.003,-0.0024000000000000002,0.0194
5.73014325358134,0.0265,0.5248,-9.7509,-0.0036999999999999997,-0.0026999999999999997,0.019200000000000002
5.74014350358759,0.05469999999999999,0.4881,-9.7817,-0.0041,-0.0023,0.0191
5.75014375359384,0.057999999999999996,0.48979999999999996,-9.7951,-0.0038,-0.0018,0.0193
5.76014400360009,0.0252,0.5218999999999999,-9.7931,-0.0039,-0.0018,0.0197
5.7701442536063405,0.032299999999999995,0.5347,-9.7785,-0.0031,-0.0024000000000000002,0.0194
5.780144503612591,0.015799999999999998,0.5094,-9.7578,-0.0042,-0.0026,0.0195
5.790144753618841,0.0497,0.46509999999999996,-9.772599999999999,-0.004399999999999999,-0.0023,0.0195
5.800145003625091,0.0603,0.503,-9.7944,-0.0045000000000000005,-0.0019,0.0195
5.810145253631341,0.0249,0.4883,-9.776,-0.0043,-0.0018,0.0193
5.820145503637591,0.0402,0.489,-9.7659,-0.0023,-0.0023,0.0194
5.8301457536438415,0.008799999999999999,0.4823,-9.7549,-0.0026,-0.0024000000000000002,0.019200000000000002
5.840146003650092,0.053200000000000004,0.4775,-9.7624,-0.0025,-0.0025,0.019200000000000002
5.850146253656342,0.0652,0.4869,-9.800799999999999,-0.0025,-0.002,0.019
5.860146503662592,0.0105,0.4989,-9.794799999999999,-0.0025,-0.0019,0.0193
5.870146753668842,0.0312,0.508,-9.7736,-0.0015,-0.0024000000000000002,0.0194
5.880147003675092,0.0231,0.49979999999999997,-9.7599,-0.0019,-0.0028,0.019200000000000002
5.890147253681342,0.053399999999999996,0.4535,-9.781099999999999,-0.0021999999999999997,-0.0026,0.019200000000000002
5.9001475036875926,0.052899999999999996,0.47479999999999994,-9.774199999999999,-0.001,-0.0021999999999999997,0.019200000000000002
5.910147753693843,0.0254,0.4876,-9.7926,-0.001,-0.0019,0.019200000000000002
5.920148003700093,0.0276,0.5121,-9.785499999999999,0.0006000000000000001,-0.0024000000000000002,0.0194
5.930148253706343,0.0211,0.5161,-9.7758,-0.00030000000000000003,-0.0026999999999999997,0.0189
5.940148503712593,0.0562,0.48619999999999997,-9.7805,-0.0010999999999999998,-0.0028,0.019
5.950148753718843,0.06449999999999999,0.49639999999999995,-9.7856,-0.0013,-0.0024000000000000002,0.018799999999999997
5.9601490037250935,0.026600000000000002,0.4995,-9.7979,-0.0015,-0.0017,0.0193
5.970149253731344,0.0292,0.5147999999999999,-9.8028,-0.0006000000000000001,-0.0018,0.019200000000000002
5.980149503737594,0.0127,0.5175,-9.7817,-0.0023,-0.0021999999999999997,0.0191
5.990149753743844,0.053399999999999996,0.4715,-9.8015,-0.0026999999999999997,-0.0025,0.0189
6.000150003750094,0.053399999999999996,0.49579999999999996,-9.804599999999999,-0.0031999999999999997,-0.0021,0.0191
6.010150253756344,0.029799999999999997,0.507,-9.8051,-0.0036,-0.0019,0.019200000000000002
6.020150503762594,0.0341,0.4981,-9.7835,-0.0024000000000000002,-0.0025,0.0191
6.030150753768845,0.0201,0.4949,-9.767000000000001,-0.0033,-0.0024000000000000002,0.0191
6.040151003775095,0.0504,0.4745,-9.7804,-0.0034999999999999996,-0.0021999999999999997,0.0191
6.050151253781345,0.0625,0.48910000000000003,-9.7918,-0.0036999999999999997,-0.0019,0.0189
6.060151503787595,0.0283,0.49329999999999996,-9.7995,-0.004,-0.0015,0.019200000000000002
6.070151753793845,0.025500000000000002,0.49589999999999995,-9.7988,-0.0028,-0.0019,0.019
6.080152003800095,0.0214,0.5007,-9.7717,-0.0036,-0.0021,0.019
6.0901522538063455,0.0493,0.45830000000000004,-9.7883,-0.0039,-0.0021999999999999997,0.018699999999999998
6.100152503812596,0.052199999999999996,0.4743,-9.785,-0.0034999999999999996,-0.0018,0.018799999999999997
6.110152753818846,0.0439,0.4908,-9.7922,-0.0033,-0.0015,0.0189
6.120153003825096,0.0221,0.49129999999999996,-9.7863,-0.002,-0.0017,0.018699999999999998
6.130153253831346,0.012799999999999999,0.4943,-9.7647,-0.003,-0.0019,0.019
6.140153503837596,0.0579,0.4773,-9.796100000000001,-0.0033,-0.0018,0.018799999999999997
6.150153753843846,0.05330000000000001,0.4866,-9.818499999999998,-0.0036,-0.0015,0.018699999999999998
6.160154003850097,0.0208,0.4884,-9.803099999999999,-0.0042,-0.0015999999999999999,0.0189
6.170154253856347,0.0375,0.48869999999999997,-9.7881,-0.0026,-0.0021999999999999997,0.0186
6.180154503862597,0.0199,0.4804,-9.765699999999999,-0.003,-0.002,0.0186
6.190154753868847,0.0477,0.4463,-9.7901,-0.0031,-0.0015,0.018699999999999998
6.200155003875097,0.059500000000000004,0.46740000000000004,-9.8096,-0.0024000000000000002,-0.0012000000000000001,0.0184
6.210155253881347,0.0339,0.5008,-9.8084,-0.0018,-0.0013,0.018799999999999997
6.2201555038875975,0.0222,0.5186999999999999,-9.792,-0.0009,-0.0017,0.0185
6.230155753893848,0.0281,0.5032,-9.77,-0.0024000000000000002,-0.0018,0.018799999999999997
6.240156003900098,0.056400000000000006,0.46940000000000004,-9.8081,-0.0031999999999999997,-0.0014,0.0186
6.250156253906348,0.045399999999999996,0.48719999999999997,-9.8066,-0.0036999999999999997,-0.0010999999999999998,0.018699999999999998
6.260156503912598,0.0373,0.5038,-9.8018,-0.004,-0.001,0.0189
6.270156753918848,0.0275,0.4771,-9.7929,-0.0026,-0.0015,0.0184
6.2801570039250985,0.0199,0.4647,-9.7675,-0.0029,-0.0017,0.018699999999999998
6.290157253931349,0.0407,0.44279999999999997,-9.7789,-0.0017,-0.0015,0.0184
6.300157503937599,0.0671,0.47340000000000004,-9.798399999999999,-0.001,-0.0014,0.0184
6.310157753943849,0.0327,0.48919999999999997,-9.7752,-0.0007,-0.001,0.018699999999999998
6.320158003950099,0.0353,0.4949,-9.7983,0.0007,-0.0013,0.0184
6.330158253956349,0.0172,0.502,-9.788499999999999,-0.0007999999999999999,-0.0012000000000000001,0.0185
6.340158503962599,0.0414,0.4616,-9.7912,-0.0015,-0.0012000000000000001,0.018699999999999998
6.3501587539688495,0.0771,0.4786,-9.807,-0.0006000000000000001,-0.001,0.0185
6.3601590039751,0.031100000000000003,0.49389999999999995,-9.8036,-0.0006000000000000001,-0.0006000000000000001,0.018799999999999997
6.37015925398135,0.018799999999999997,0.48619999999999997,-9.7846,9.999999999999999e-05,-0.001,0.0186
6.3801595039876,0.0314,0.4792,-9.7695,0.0007999999999999999,-0.0010999999999999998,0.018699999999999998
6.39015975399385,0.0362,0.4687,-9.775599999999999,0.0006000000000000001,-0.001,0.018699999999999998
6.4001600040001,0.0681,0.4744,-9.8125,0.0006000000000000001,-0.0006000000000000001,0.0185
6.4101602540063505,0.026099999999999998,0.5046,-9.8058,0.0005,-0.0007999999999999999,0.0189
6.420160504012601,0.024499999999999997,0.5031,-9.794799999999999,0.0014,-0.0014,0.0183
6.430160754018851,0.0242,0.4922,-9.7765,0.0005,-0.0015999999999999999,0.018699999999999998
6.440161004025101,0.0499,0.4639,-9.7839,0.00030000000000000003,-0.0010999999999999998,0.0185
6.450161254031351,0.063,0.4712,-9.8034,0.0007999999999999999,-0.0007,0.0185
6.460161504037601,0.034,0.4791,-9.7858,0.0015999999999999999,-0.0005,0.0189
6.470161754043851,0.0257,0.477,-9.7932,0.0033,-0.0005,0.0186
6.480162004050102,0.0208,0.4986,-9.7785,0.0028,-0.0007,0.019
6.490162254056352,0.043199999999999995,0.4752,-9.7886,0.0019,-0.0006000000000000001,0.018699999999999998
6.500162504062602,0.0791,0.48329999999999995,-9.824399999999999,0.0015999999999999999,-0.00039999999999999996,0.018799999999999997
6.510162754068852,0.0238,0.5025,-9.8002,0.0015999999999999999,-0.00019999999999999998,0.019
6.520163004075102,0.0238,0.5107999999999999,-9.7886,0.002,-0.0007,0.0186
6.530163254081352,0.0357,0.4824,-9.7764,0.0014,-0.0009,0.018799999999999997
6.5401635040876025,0.0433,0.46199999999999997,-9.7957,0.0015999999999999999,-0.00039999999999999996,0.018699999999999998
6.550163754093853,0.0493,0.4758,-9.7942,0.0015999999999999999,-0.00019999999999999998,0.0186
6.560164004100103,0.049499999999999995,0.49639999999999995,-9.805,0.0017,-0.00030000000000000003,0.019
6.570164254106353,0.0057,0.49620000000000003,-9.7878,0.003,-0.0006000000000000001,0.0185
6.580164504112603,0.0441,0.4894,-9.7846,0.0017,-0.0007999999999999999,0.0189
6.590164754118853,0.0391,0.4812,-9.7844,0.0012000000000000001,-0.0005,0.0189
6.600165004125103,0.0731,0.4812,-9.8096,0.0007,-0.00019999999999999998,0.0186
6.610165254131354,0.0353,0.4824,-9.8071,0.0007999999999999999,9.999999999999999e-05,0.0191
6.620165504137604,-0.00019999999999999998,0.4875,-9.7707,0.0026999999999999997,-0.0005,0.018699999999999998
6.630165754143854,0.055099999999999996,0.47939999999999994,-9.776,0.0025,-0.0006000000000000001,0.019
6.640166004150104,0.022699999999999998,0.4533,-9.757200000000001,0.0031,-0.00019999999999999998,0.018799999999999997
6.650166254156354,0.0809,0.461,-9.798399999999999,0.0031999999999999997,9.999999999999999e-05,0.0185
6.660166504162604,0.0279,0.48019999999999996,-9.7987,0.0033,0.00039999999999999996,0.0189
6.6701667541688545,0.0165,0.4864,-9.7966,0.005,-9.999999999999999e-05,0.0184
6.680167004175105,0.0395,0.4987,-9.790799999999999,0.0034999999999999996,-0.00039999999999999996,0.018699999999999998
6.690167254181355,0.0339,0.47559999999999997,-9.7941,0.003,-0.0005,0.0186
6.700167504187605,0.066,0.49839999999999995,-9.8074,0.0026999999999999997,-9.999999999999999e-05,0.0184
6.710167754193855,0.0166,0.49589999999999995,-9.7911,0.0028,0.00019999999999999998,0.0189
6.720168004200105,0.0182,0.4902,-9.7722,0.0031,-0.00019999999999999998,0.0186
6.7301682542063554,0.0493,0.4941,-9.78,0.0021999999999999997,-9.999999999999999e-05,0.019
6.740168504212606,0.045899999999999996,0.48989999999999995,-9.8056,0.0012000000000000001,0.00019999999999999998,0.018699999999999998
6.750168754218856,0.044700000000000004,0.4875,-9.814599999999999,9.999999999999999e-05,0.00030000000000000003,0.0186
6.760169004225106,0.0377,0.5123,-9.8105,-0.0,9.999999999999999e-05,0.018799999999999997
6.770169254231356,0.0086,0.5041,-9.786499999999998,9.999999999999999e-05,0.0,0.0184
6.780169504237606,0.0482,0.4836,-9.7827,-0.0007,-0.00030000000000000003,0.018799999999999997
6.790169754243856,0.0479,0.48219999999999996,-9.790899999999999,-0.001,0.00019999999999999998,0.0185
6.8001700042501065,0.04,0.47159999999999996,-9.7994,-0.0017,0.0006000000000000001,0.0185
6.810170254256357,0.0444,0.4857,-9.796100000000001,-0.0006000000000000001,0.0005,0.018799999999999997
6.820170504262607,0.0069,0.5163,-9.7886,-0.00039999999999999996,0.00019999999999999998,0.018799999999999997
6.830170754268857,0.0422,0.4995,-9.794799999999999,-0.0013,-9.999999999999999e-05,0.018699999999999998
6.840171004275107,0.043699999999999996,0.4656,-9.7985,-0.0021,0.0,0.0186
6.850171254281357,0.0409,0.4829,-9.7985,-0.0026,0.00030000000000000003,0.018799999999999997
6.8601715042876075,0.0334,0.501,-9.782399999999999,-0.0014,0.0005,0.018699999999999998
6.870171754293858,0.02,0.4875,-9.7686,-0.0017,0.00030000000000000003,0.018699999999999998
6.880172004300108,0.0433,0.46849999999999997,-9.7755,-0.0015999999999999999,0.00030000000000000003,0.018699999999999998
6.890172254306358,0.0556,0.4744,-9.8068,-0.0015999999999999999,0.0006000000000000001,0.0186
6.900172504312608,0.0339,0.4869,-9.8167,-0.0013,0.0010999999999999998,0.018699999999999998
6.910172754318858,0.0229,0.4955,-9.789499999999999,-9.999999999999999e-05,0.0006000000000000001,0.018799999999999997
6.920173004325108,0.0235,0.5014,-9.770299999999999,-0.00039999999999999996,9.999999999999999e-05,0.018699999999999998
6.930173254331359,0.0465,0.4746,-9.7881,-0.001,0.00019999999999999998,0.018699999999999998
6.940173504337609,0.0464,0.4686,-9.784099999999999,-0.0005,0.00039999999999999996,0.0184
6.950173754343859,0.0401,0.4735,-9.7964,-0.0006000000000000001,0.0009,0.018799999999999997
6.960174004350109,0.0194,0.47800000000000004,-9.7854,0.0012000000000000001,0.0006000000000000001,0.018799999999999997
6.970174254356359,0.0317,0.4766,-9.7898,0.0018,0.00030000000000000003,0.0185
6.980174504362609,0.0377,0.4715,-9.7837,0.0014,0.0,0.018799999999999997
6.9901747543688595,0.051500000000000004,0.4773,-9.789299999999999,0.0014,0.00039999999999999996,0.0184
7.00017500437511,0.0326,0.48910000000000003,-9.803199999999999,0.0006000000000000001,0.0007999999999999999,0.018699999999999998
7.01017525438136,0.0317,0.5087999999999999,-9.7794,0.0018,0.0005,0.018799999999999997
7.02017550438761,0.0164,0.4971,-9.764100000000001,0.0010999999999999998,0.00030000000000000003,0.0185
7.03017575439386,0.0528,0.4684,-9.7661,0.0007999999999999999,0.00019999999999999998,0.018699999999999998
7.04017600440011,0.0546,0.47080000000000005,-9.7889,0.0015,0.0007,0.0185
7.05017625440636,0.0036999999999999997,0.4861,-9.7775,0.002,0.0006000000000000001,0.019
7.060176504412611,0.0419,0.5263,-9.7833,0.0039,0.0,0.0191
7.070176754418861,0.019,0.5297999999999999,-9.7639,0.0034,-0.00019999999999999998,0.018799999999999997
7.080177004425111,0.0468,0.47869999999999996,-9.7631,0.002,-0.0,0.018799999999999997
7.090177254431361,0.061799999999999994,0.4582,-9.8027,0.001,0.0009,0.0186
7.100177504437611,0.0236,0.4835,-9.8424,0.0006000000000000001,0.0010999999999999998,0.0191
7.110177754443861,0.0212,0.5151,-9.8037,0.0021,0.0005,0.018699999999999998
7.1201780044501115,0.018699999999999998,0.5015999999999999,-9.7784,0.0014,-9.999999999999999e-05,0.018699999999999998
7.130178254456362,0.0365,0.47600000000000003,-9.772400000000001,0.0010999999999999998,0.0,0.019
7.140178504462612,0.0663,0.5083,-9.786200000000001,0.0006000000000000001,0.0007,0.019
7.150178754468862,0.011,0.5286,-9.7919,-0.0009,0.0009,0.0195
7.160179004475112,0.028699999999999996,0.4948,-9.7903,0.0,9.999999999999999e-05,0.0191
7.170179254481362,0.0248,0.4854,-9.7852,-0.0007999999999999999,-0.00019999999999999998,0.0193
7.180179504487612,0.0328,0.466,-9.7899,-0.0005,-9.999999999999999e-05,0.0191
7.190179754493863,0.0585,0.4937,-9.7956,-0.00030000000000000003,0.00019999999999999998,0.0191
7.200180004500113,0.0416,0.4914,-9.7995,-0.00039999999999999996,0.0005,0.0193
7.210180254506363,0.0162,0.5004,-9.772599999999999,0.0015999999999999999,0.00019999999999999998,0.0191
7.220180504512613,0.0292,0.5026,-9.777800000000001,0.0006000000000000001,0.00039999999999999996,0.019200000000000002
7.230180754518863,0.0264,0.46959999999999996,-9.7831,0.0005,0.0006000000000000001,0.019200000000000002
7.240181004525113,0.05999999999999999,0.4818,-9.8021,9.999999999999999e-05,0.0007999999999999999,0.0194
7.2501812545313635,0.0208,0.498,-9.8003,0.0,0.0007,0.0195
7.260181504537614,0.0199,0.5053,-9.7851,0.0006000000000000001,0.0,0.0193
7.270181754543864,0.026699999999999998,0.4987,-9.7888,-0.00039999999999999996,0.00019999999999999998,0.0195
7.280182004550114,0.0355,0.481,-9.796100000000001,-0.0006000000000000001,0.00039999999999999996,0.0195
7.290182254556364,0.0479,0.479,-9.7896,-0.001,0.0005,0.019200000000000002
7.300182504562614,0.026899999999999997,0.48710000000000003,-9.7914,-0.00019999999999999998,0.00039999999999999996,0.0197
7.3101827545688645,0.0151,0.4757,-9.7735,0.001,0.0,0.0191
7.320183004575115,0.043399999999999994,0.481,-9.7876,0.0007,-0.0,0.0197
7.330183254581365,0.0286,0.4793,-9.7828,0.0006000000000000001,9.999999999999999e-05,0.0191
7.340183504587615,0.04889999999999999,0.47359999999999997,-9.7922,-9.999999999999999e-05,0.00030000000000000003,0.0191
7.350183754593865,0.026099999999999998,0.5014,-9.7806,0.0005,0.0005,0.0197
7.360184004600115,0.0131,0.512,-9.777800000000001,0.00039999999999999996,0.00019999999999999998,0.019200000000000002
7.370184254606365,0.0474,0.46909999999999996,-9.783,-0.00030000000000000003,-9.999999999999999e-05,0.0196
7.3801845046126155,0.0444,0.46569999999999995,-9.7866,0.00039999999999999996,0.00030000000000000003,0.0193
7.390184754618866,0.0335,0.4733,-9.778699999999999,-0.00019999999999999998,0.0006000000000000001,0.0193
7.400185004625116,0.022699999999999998,0.45970000000000005,-9.783,0.0015,0.0006000000000000001,0.0197
7.410185254631366,0.012199999999999999,0.48729999999999996,-9.7785,0.0024000000000000002,9.999999999999999e-05,0.0194
7.420185504637616,0.060599999999999994,0.4934,-9.7935,0.0017,-9.999999999999999e-05,0.0194
7.430185754643866,0.039,0.47869999999999996,-9.7846,0.0010999999999999998,-0.0,0.019
7.4401860046501165,0.0283,0.47280000000000005,-9.8004,0.0005,0.00030000000000000003,0.019200000000000002
7.450186254656367,0.0232,0.5014,-9.780800000000001,0.0013,0.00019999999999999998,0.0195
7.460186504662617,0.006,0.5015999999999999,-9.763399999999999,0.0014,-0.00039999999999999996,0.0193
7.470186754668867,0.057300000000000004,0.4567,-9.7752,0.0013,-0.0006000000000000001,0.019200000000000002
7.480187004675117,0.0535,0.4647,-9.794899999999998,0.0014,0.0,0.019200000000000002
7.490187254681367,0.025799999999999997,0.488,-9.797699999999999,0.0009,0.0006000000000000001,0.019200000000000002
7.500187504687617,0.0177,0.5065,-9.7833,0.0018,0.00019999999999999998,0.0194
7.510187754693868,0.018000000000000002,0.4971,-9.7784,0.0010999999999999998,-0.00030000000000000003,0.019200000000000002
7.520188004700118,0.0579,0.4705,-9.7958,0.0007,-0.00030000000000000003,0.019200000000000002
7.530188254706368,0.0481,0.48849999999999993,-9.7928,0.00030000000000000003,0.00030000000000000003,0.019200000000000002
7.540188504712618,0.0249,0.5089,-9.8017,-0.00039999999999999996,0.0006000000000000001,0.0195
7.550188754718868,0.0238,0.5094,-9.789399999999999,0.00030000000000000003,0.00019999999999999998,0.0194
7.560189004725118,0.0146,0.49560000000000004,-9.779,-0.0007,-0.00019999999999999998,0.0193
7.5701892547313685,0.0279,0.46499999999999997,-9.7828,-0.0015,-0.00039999999999999996,0.0193
7.580189504737619,0.065,0.47140000000000004,-9.8009,-0.0015999999999999999,-0.00019999999999999998,0.019200000000000002
7.590189754743869,0.0333,0.49589999999999995,-9.8005,-0.0015,0.0,0.0194
7.600190004750119,0.0156,0.49979999999999997,-9.779,-0.0006000000000000001,-0.0005,0.019
7.610190254756369,0.0193,0.4738,-9.758899999999999,-0.0013,-0.0007999999999999999,0.019200000000000002
7.620190504762619,0.040499999999999994,0.45399999999999996,-9.769799999999998,-0.0015999999999999999,-0.0005,0.0191
7.630190754768869,0.058600000000000006,0.46889999999999993,-9.7888,-0.0013,-9.999999999999999e-05,0.0191
7.64019100477512,0.034699999999999995,0.48619999999999997,-9.7923,-0.0009,9.999999999999999e-05,0.0193
7.65019125478137,0.0139,0.469,-9.7801,0.0007,-0.00030000000000000003,0.0191
7.66019150478762,0.0363,0.47309999999999997,-9.7801,0.0007999999999999999,-0.00039999999999999996,0.0194
7.67019175479387,0.0259,0.46889999999999993,-9.7654,0.0007,-0.00030000000000000003,0.019
7.680192004800121,0.0611,0.4662,-9.799900000000001,0.0009,-0.00019999999999999998,0.019
7.690192254806371,0.032,0.4858,-9.7804,0.0017,-0.00019999999999999998,0.0193
7.700192504812621,0.0060999999999999995,0.49449999999999994,-9.7732,0.0029,-0.0005,0.018799999999999997
7.710192754818872,0.0409,0.4821,-9.787700000000001,0.0017,-0.0007999999999999999,0.0193
7.720193004825122,0.0373,0.46769999999999995,-9.7846,0.0021,-0.0006000000000000001,0.0189
7.730193254831372,0.0386,0.4744,-9.8102,0.0015999999999999999,-0.0005,0.018799999999999997
7.740193504837622,0.022699999999999998,0.48310000000000003,-9.769,0.0023,-0.0009,0.019
7.750193754843872,0.0324,0.49729999999999996,-9.7815,0.0031999999999999997,-0.001,0.018799999999999997
7.760194004850122,0.036000000000000004,0.4724,-9.7754,0.0029,-0.0010999999999999998,0.0189
7.7701942548563725,0.0456,0.47359999999999997,-9.7814,0.0031,-0.0007999999999999999,0.019
7.780194504862623,0.0315,0.4861,-9.8068,0.0026,-0.00039999999999999996,0.0189
7.790194754868873,0.021599999999999998,0.5056999999999999,-9.7925,0.0036999999999999997,-0.0005,0.0194
7.800195004875123,0.0239,0.5084,-9.782599999999999,0.0038,-0.0007,0.019200000000000002
7.810195254881373,0.045899999999999996,0.49589999999999995,-9.7889,0.0034999999999999996,-0.0007999999999999999,0.019200000000000002
7.820195504887623,0.052099999999999994,0.49,-9.7983,0.0028,-0.0006000000000000001,0.019200000000000002
7.830195754893873,0.027,0.48619999999999997,-9.795,0.0026999999999999997,-9.999999999999999e-05,0.019200000000000002
7.840196004900124,0.0264,0.5146999999999999,-9.7898,0.0036,-0.0007,0.0194
7.850196254906374,0.0179,0.49579999999999996,-9.7785,0.0031,-0.001,0.0189
7.860196504912624,0.051000000000000004,0.4766,-9.7806,0.0031999999999999997,-0.0014,0.019200000000000002
7.870196754918874,0.06409999999999999,0.4968,-9.802,0.0036999999999999997,-0.001,0.0189
7.880197004925124,0.0105,0.512,-9.7974,0.0033,-0.0007999999999999999,0.0194
7.890197254931374,0.030899999999999997,0.5287,-9.786999999999999,0.0038,-0.001,0.0196
7.9001975049376245,0.0211,0.5124,-9.7813,0.0025,-0.0010999999999999998,0.0194
7.910197754943875,0.051199999999999996,0.4638,-9.7704,0.0017,-0.0013,0.0194
7.920198004950125,0.0708,0.48009999999999997,-9.7991,0.0019,-0.0009,0.019200000000000002
7.930198254956375,0.009600000000000001,0.4908,-9.8005,0.0017,-0.00030000000000000003,0.0196
7.940198504962625,0.0207,0.49379999999999996,-9.7711,0.0034999999999999996,-0.0007,0.0195
7.950198754968875,0.0377,0.5042,-9.7847,0.0033,-0.0012000000000000001,0.0194
7.9601990049751254,0.036699999999999997,0.4875,-9.7817,0.0026,-0.0009,0.0194
7.970199254981376,0.0608,0.48419999999999996,-9.7942,0.0029,-0.0007,0.019200000000000002
7.980199504987626,0.032,0.5186,-9.7989,0.0019,-0.0006000000000000001,0.0197
7.990199754993876,0.0168,0.5043,-9.794799999999999,0.0029,-0.0010999999999999998,0.019200000000000002
8.000200005000126,0.029300000000000003,0.5027,-9.78,0.0021,-0.0014,0.0194
8.010200255006376,0.0368,0.47479999999999994,-9.7721,0.0017,-0.0014,0.0194
8.020200505012626,0.0642,0.4797,-9.7847,0.0021999999999999997,-0.0012000000000000001,0.019200000000000002
8.030200755018877,0.0292,0.49100000000000005,-9.789299999999999,0.0026999999999999997,-0.001,0.0196
8.040201005025127,0.0112,0.49449999999999994,-9.777,0.0039,-0.0015,0.019200000000000002
8.050201255031377,0.0394,0.49,-9.7766,0.0034999999999999996,-0.0015,0.0194
8.060201505037627,0.0468,0.4755,-9.7896,0.0033,-0.0013,0.0193
8.070201755043877,0.053799999999999994,0.48650000000000004,-9.810099999999998,0.0026999999999999997,-0.0009,0.019200000000000002
8.080202005050127,0.0348,0.5011,-9.8018,0.0034999999999999996,-0.001,0.0196
8.090202255056377,0.0109,0.5082,-9.7685,0.0036999999999999997,-0.0014,0.0191
8.100202505062628,0.0441,0.4926,-9.7795,0.003,-0.0013,0.0194
8.110202755068878,0.0382,0.4837,-9.7931,0.003,-0.0009,0.019200000000000002
8.120203005075128,0.051500000000000004,0.4930999999999999,-9.814599999999999,0.0019,-0.0007,0.019200000000000002
8.130203255081378,0.0219,0.48849999999999993,-9.7905,0.0023,-0.0012000000000000001,0.0193
8.140203505087628,0.012,0.509,-9.7746,0.0025,-0.0017,0.0191
8.150203755093878,0.048299999999999996,0.5,-9.7875,0.0015,-0.0019,0.019200000000000002
8.160204005100129,0.0413,0.48260000000000003,-9.8037,0.0014,-0.0017,0.019
8.170204255106379,0.0411,0.5042,-9.796299999999999,0.0009,-0.0015,0.019
8.180204505112629,0.04,0.5114,-9.7767,0.0015999999999999999,-0.0015,0.019200000000000002
8.190204755118879,0.021599999999999998,0.5059,-9.7704,0.0010999999999999998,-0.0017,0.0191
8.20020500512513,0.0493,0.4909,-9.7853,0.0007,-0.0015,0.0191
8.21020525513138,0.068,0.49959999999999993,-9.8117,9.999999999999999e-05,-0.0010999999999999998,0.0189
8.22020550513763,0.029999999999999995,0.5006,-9.8217,-0.0007999999999999999,-0.0006000000000000001,0.019200000000000002
8.23020575514388,0.0124,0.5147999999999999,-9.7884,0.0006000000000000001,-0.001,0.019200000000000002
8.24020600515013,0.030600000000000002,0.5176,-9.7831,-0.0009,-0.0015999999999999999,0.0191
8.25020625515638,0.0475,0.4777,-9.7833,-0.001,-0.0017,0.019
8.26020650516263,0.0675,0.4915,-9.794500000000001,-0.0007,-0.0012000000000000001,0.018799999999999997
8.27020675516888,0.0279,0.4989,-9.8066,-0.0013,-0.0010999999999999998,0.0191
8.28020700517513,0.0229,0.4975,-9.7956,-0.00030000000000000003,-0.0015,0.0189
8.29020725518138,0.0294,0.5016999999999999,-9.7723,-0.00030000000000000003,-0.0018,0.019
8.30020750518763,0.0525,0.47990000000000005,-9.7857,-0.0006000000000000001,-0.0019,0.0189
8.31020775519388,0.0579,0.4844,-9.7883,-0.00039999999999999996,-0.0015999999999999999,0.019
8.320208005200131,0.041,0.5051,-9.7957,0.00019999999999999998,-0.0014,0.019200000000000002
8.330208255206381,0.0237,0.5136,-9.794899999999998,0.0014,-0.0015999999999999999,0.0191
8.340208505212631,0.025799999999999997,0.4773,-9.7682,0.0014,-0.0015999999999999999,0.0189
8.350208755218882,0.0572,0.44720000000000004,-9.7905,0.0025,-0.0015,0.018799999999999997
8.360209005225132,0.0577,0.4602,-9.8114,0.0036999999999999997,-0.0009,0.018699999999999998
8.370209255231382,0.0346,0.494,-9.794899999999998,0.005,-0.0007999999999999999,0.019200000000000002
8.380209505237632,0.0393,0.5159999999999999,-9.797,0.0059,-0.0012000000000000001,0.0186
8.390209755243882,0.0196,0.5095999999999999,-9.7852,0.0043,-0.0015,0.018799999999999997
8.400210005250132,0.027999999999999997,0.48469999999999996,-9.7764,0.0031,-0.0015999999999999999,0.018699999999999998
8.410210255256382,0.0744,0.4858,-9.8156,0.0033,-0.0015999999999999999,0.018799999999999997
8.420210505262633,0.0301,0.5103,-9.7832,0.0043,-0.0017,0.019
8.430210755268883,0.0319,0.5102,-9.7846,0.0055,-0.0019,0.018699999999999998
8.440211005275133,0.035199999999999995,0.5054000000000001,-9.7844,0.0056,-0.002,0.019
8.450211255281383,0.0457,0.5048999999999999,-9.7805,0.0048000000000000004,-0.0019,0.018699999999999998
8.460211505287633,0.0638,0.48960000000000004,-9.804599999999999,0.0034999999999999996,-0.0013,0.0184
8.470211755293883,0.034999999999999996,0.49979999999999997,-9.804400000000001,0.0038,-0.0012000000000000001,0.0189
8.480212005300134,0.025500000000000002,0.49529999999999996,-9.7837,0.0046,-0.0013,0.0184
8.490212255306384,0.0536,0.49899999999999994,-9.7929,0.0045000000000000005,-0.0015,0.0189
8.500212505312634,0.0451,0.505,-9.792399999999999,0.004399999999999999,-0.0014,0.0183
8.510212755318884,0.0462,0.498,-9.8003,0.0031,-0.001,0.0185
8.520213005325134,0.0363,0.5288,-9.7884,0.0036,-0.0010999999999999998,0.019
8.530213255331384,0.017599999999999998,0.5152,-9.793899999999999,0.0034,-0.0015,0.0185
8.540213505337634,0.055099999999999996,0.49839999999999995,-9.799,0.0026,-0.0019,0.0189
8.550213755343885,0.0491,0.5093,-9.8102,0.0026,-0.0015,0.0186
8.560214005350135,0.0439,0.5121,-9.8082,0.0018,-0.0013,0.0186
8.570214255356385,0.036699999999999997,0.5364,-9.7858,0.0026999999999999997,-0.0015999999999999999,0.0189
8.580214505362635,0.013999999999999999,0.5283,-9.7621,0.002,-0.002,0.0184
8.590214755368885,0.07029999999999999,0.48139999999999994,-9.7887,0.002,-0.0019,0.0185
8.600215005375135,0.0557,0.48710000000000003,-9.7887,0.0026999999999999997,-0.0014,0.0184
8.610215255381386,0.042,0.5074000000000001,-9.8084,0.003,-0.001,0.0186
8.620215505387636,0.0262,0.5058,-9.7916,0.0048000000000000004,-0.0014,0.0185
8.630215755393886,0.0219,0.5078,-9.770900000000001,0.0043,-0.0017,0.018699999999999998
8.640216005400136,0.07519999999999999,0.4934,-9.7907,0.0043,-0.0019,0.0184
8.650216255406386,0.0497,0.49560000000000004,-9.788499999999999,0.0042,-0.0013,0.0183
8.660216505412636,0.0302,0.5176,-9.7936,0.004,-0.0009,0.0189
8.670216755418886,0.041,0.5218999999999999,-9.796299999999999,0.0050999999999999995,-0.0013,0.0185
8.680217005425137,0.0203,0.5076999999999999,-9.7852,0.0046,-0.0017,0.0185
8.690217255431387,0.0588,0.4894,-9.7946,0.0041,-0.0015999999999999999,0.0184
8.700217505437637,0.0687,0.4987,-9.8006,0.0042,-0.0015,0.0183
8.710217755443887,0.0439,0.5216,-9.8174,0.0034999999999999996,-0.0010999999999999998,0.0184
8.720218005450137,0.0229,0.5237,-9.7938,0.004,-0.0015,0.0182
8.730218255456387,0.0436,0.5155,-9.789,0.003,-0.0018,0.0183
8.740218505462638,0.046299999999999994,0.5034000000000001,-9.792399999999999,0.0021,-0.0015999999999999999,0.0183
8.750218755468888,0.068,0.5119,-9.8016,0.0021999999999999997,-0.0012000000000000001,0.0182
8.760219005475138,0.037899999999999996,0.5289,-9.8052,0.0021,-0.0010999999999999998,0.0186
8.770219255481388,0.0218,0.5420999999999999,-9.7929,0.0034999999999999996,-0.0015999999999999999,0.0184
8.780219505487638,0.0404,0.5178999999999999,-9.7701,0.0021,-0.0017,0.0184
8.790219755493888,0.046099999999999995,0.4823,-9.7838,0.0021999999999999997,-0.0015,0.0183
8.800220005500138,0.0746,0.4985,-9.8006,0.0019,-0.0012000000000000001,0.0181
8.810220255506389,0.0411,0.5420999999999999,-9.8097,0.0024000000000000002,-0.0007,0.018699999999999998
8.820220505512639,0.0312,0.5423,-9.802,0.0029,-0.0013,0.0182
8.830220755518889,0.043,0.5292,-9.796299999999999,0.0025,-0.0015,0.0185
8.84022100552514,0.0504,0.5212,-9.7972,0.0024000000000000002,-0.0012000000000000001,0.0185
8.85022125553139,0.0687,0.5277999999999999,-9.8037,0.0025,-0.0006000000000000001,0.0183
8.86022150553764,0.0262,0.5262,-9.7931,0.0024000000000000002,-0.0007,0.0189
8.87022175554389,0.0288,0.5335,-9.79,0.0028,-0.0013,0.0186
8.88022200555014,0.0581,0.5401999999999999,-9.8139,0.0017,-0.0013,0.018799999999999997
8.89022225555639,0.0342,0.5345,-9.7902,0.0005,-0.0013,0.0185
8.90022250556264,0.0672,0.517,-9.799299999999999,-0.0007,-0.0013,0.0186
8.91022275556889,0.036000000000000004,0.534,-9.8026,0.0,-0.0010999999999999998,0.0189
8.92022300557514,0.0265,0.5388000000000001,-9.770900000000001,0.00019999999999999998,-0.0013,0.0186
8.93022325558139,0.0616,0.5122,-9.7928,-0.00039999999999999996,-0.0014,0.019
8.94022350558764,0.051699999999999996,0.5164,-9.7812,-0.0,-0.001,0.0186
8.95022375559389,0.0457,0.5079,-9.8039,-0.0007999999999999999,-0.0007,0.018699999999999998
8.960224005600141,0.0375,0.5526,-9.7884,9.999999999999999e-05,-0.0006000000000000001,0.0195
8.970224255606391,0.030299999999999997,0.5545,-9.784099999999999,-0.0007,-0.0009,0.0184
8.980224505612641,0.0629,0.5125,-9.7989,-0.002,-0.0012000000000000001,0.019
8.990224755618891,0.0524,0.5269,-9.7807,-0.0019,-0.0010999999999999998,0.0186
9.000225005625142,0.0371,0.5119,-9.808,-0.0026,-0.00039999999999999996,0.018799999999999997
9.010225255631392,0.0426,0.5209,-9.7946,-0.0012000000000000001,-0.00039999999999999996,0.0194
9.020225505637642,0.018000000000000002,0.5369999999999999,-9.794799999999999,-0.0009,-0.0007999999999999999,0.018799999999999997
9.030225755643892,0.059500000000000004,0.5205000000000001,-9.801,-0.0023,-0.0014,0.0191
9.040226005650142,0.0671,0.5094,-9.794500000000001,-0.0021,-0.0012000000000000001,0.018799999999999997
9.050226255656392,0.0438,0.528,-9.811499999999999,-0.0023,-0.0007,0.019
9.060226505662643,0.029799999999999997,0.5459,-9.7832,-0.0015999999999999999,-0.0010999999999999998,0.019200000000000002
9.070226755668893,0.0221,0.5314,-9.7625,-0.0017,-0.0015999999999999999,0.019
9.080227005675143,0.0654,0.5098,-9.768699999999999,-0.0021,-0.0015,0.0191
9.090227255681393,0.0701,0.5058,-9.809,-0.0019,-0.0005,0.0189
9.100227505687643,0.037399999999999996,0.5337,-9.796199999999999,-0.0025,-0.00030000000000000003,0.0194
9.110227755693893,0.0429,0.5315,-9.7947,-0.0009,-0.0005,0.0193
9.120228005700143,0.0183,0.5306,-9.769,-0.0017,-0.0013,0.019200000000000002
9.130228255706394,0.0557,0.5169,-9.7755,-0.0026999999999999997,-0.0012000000000000001,0.0194
9.140228505712644,0.0823,0.5134,-9.809099999999999,-0.0026,-0.0006000000000000001,0.0189
9.150228755718894,0.0314,0.5272,-9.8013,-0.003,-0.00039999999999999996,0.0195
9.160229005725144,0.0279,0.5398,-9.782,-0.002,-0.0007999999999999999,0.0195
9.170229255731394,0.0284,0.5451,-9.7746,-0.0028,-0.0010999999999999998,0.0194
9.180229505737644,0.061700000000000005,0.5007,-9.7953,-0.0039,-0.0010999999999999998,0.019200000000000002
9.190229755743895,0.0661,0.51,-9.8107,-0.0046,-0.0006000000000000001,0.0193
9.200230005750145,0.032299999999999995,0.5255,-9.8085,-0.0039,-0.0007,0.0194
9.210230255756395,0.0329,0.5393,-9.7907,-0.0034,-0.0009,0.0195
9.220230505762645,0.0468,0.5209,-9.7769,-0.0050999999999999995,-0.001,0.0191
9.230230755768895,0.0528,0.4792,-9.7917,-0.006,-0.001,0.0191
9.240231005775145,0.0729,0.48219999999999996,-9.8104,-0.0057,-0.00039999999999999996,0.0191
9.250231255781395,0.0337,0.5213,-9.8026,-0.0053,-0.00030000000000000003,0.0195
9.260231505787646,0.0263,0.5258999999999999,-9.7827,-0.0041,-0.0009,0.0193
9.270231755793896,0.0364,0.5184,-9.7766,-0.0042,-0.0010999999999999998,0.0194
9.280232005800146,0.050600000000000006,0.503,-9.7881,-0.0049,-0.0007,0.019200000000000002
9.290232255806396,0.0708,0.5072,-9.8065,-0.0056,-0.00019999999999999998,0.0191
9.300232505812646,0.0468,0.49249999999999994,-9.8158,-0.0048000000000000004,0.0,0.019200000000000002
9.310232755818896,0.0292,0.4972,-9.81,-0.0031999999999999997,-0.00039999999999999996,0.019
9.320233005825147,0.0393,0.505,-9.7916,-0.0024000000000000002,-0.0007,0.0191
9.330233255831397,0.0471,0.5068999999999999,-9.788499999999999,-0.0026999999999999997,-0.0006000000000000001,0.0189
9.340233505837647,0.0766,0.5145000000000001,-9.796100000000001,-0.0031,-0.00019999999999999998,0.019
9.350233755843897,0.0398,0.5206999999999999,-9.7953,-0.0028,9.999999999999999e-05,0.019200000000000002
9.360234005850147,0.0275,0.5263,-9.789100000000001,-0.0021999999999999997,-0.0005,0.0189
9.370234255856397,0.0462,0.5085,-9.792399999999999,-0.003,-0.0006000000000000001,0.0191
9.380234505862648,0.038900000000000004,0.4852,-9.798399999999999,-0.003,-0.00030000000000000003,0.019
9.390234755868898,0.0652,0.501,-9.8096,-0.0031,-0.00019999999999999998,0.018799999999999997
9.400235005875148,0.0493,0.5207999999999999,-9.8004,-0.0028,-0.00019999999999999998,0.019200000000000002
9.410235255881398,0.0262,0.5206,-9.7816,-0.0019,-0.00039999999999999996,0.0185
9.420235505887648,0.050199999999999995,0.4841,-9.7704,-0.0025,-0.00039999999999999996,0.0189
9.430235755893898,0.0395,0.48910000000000003,-9.786499999999998,-0.0019,9.999999999999999e-05,0.018799999999999997
9.440236005900148,0.0598,0.4866,-9.7889,-0.002,0.0005,0.018699999999999998
9.450236255906399,0.0639,0.5065,-9.8203,-0.0019,0.00039999999999999996,0.019
9.460236505912649,-0.0014,0.5185000000000001,-9.8015,-0.001,-0.0,0.0184
9.470236755918899,0.0578,0.5126000000000001,-9.7926,-0.0021999999999999997,-0.00019999999999999998,0.019
9.480237005925149,0.0278,0.5111,-9.7916,-0.002,-0.0,0.018699999999999998
9.4902372559314,0.0714,0.5084,-9.797699999999999,-0.0029,0.00019999999999999998,0.0185
9.50023750593765,0.0498,0.5081,-9.789100000000001,-0.0018,0.0005,0.0191
9.5102377559439,0.012,0.5092,-9.779300000000001,-0.0006000000000000001,0.00019999999999999998,0.0183
9.52023800595015,0.046,0.5051,-9.7915,-0.0018,-9.999999999999999e-05,0.019
9.5302382559564,0.039599999999999996,0.4961,-9.8052,-0.0012000000000000001,9.999999999999999e-05,0.0186
9.54023850596265,0.0667,0.5149,-9.811599999999999,-0.0019,0.00019999999999999998,0.0183
9.5502387559689,0.0324,0.5238999999999999,-9.7915,-0.0015999999999999999,0.00019999999999999998,0.018799999999999997
9.56023900597515,0.0241,0.5228,-9.7704,-0.0013,-0.0,0.0184
9.5702392559814,0.0567,0.5125,-9.7884,-0.0017,0.00019999999999999998,0.018799999999999997
9.58023950598765,0.0358,0.5074000000000001,-9.7691,-0.0018,0.0005,0.018699999999999998
9.5902397559939,0.0693,0.5015999999999999,-9.807599999999999,-0.0026,0.0007,0.018699999999999998
9.600240006000151,0.0395,0.5267,-9.8022,-0.0014,0.0009,0.0191
9.610240256006401,0.009399999999999999,0.5314,-9.7846,-0.0015999999999999999,0.00039999999999999996,0.0186
9.620240506012651,0.0508,0.5095,-9.7947,-0.0026,0.0,0.0189
9.630240756018901,0.0599,0.4955,-9.8072,-0.0023,0.00039999999999999996,0.0186
9.640241006025152,0.0237,0.5059,-9.778699999999999,-0.0023,0.0007,0.0186
9.650241256031402,0.0473,0.5262,-9.779,-0.0015,0.0007,0.0191
9.660241506037652,0.0221,0.5146999999999999,-9.7807,-0.0005,0.0005,0.0186
9.670241756043902,0.0493,0.4954,-9.783999999999999,-0.001,9.999999999999999e-05,0.0189
9.680242006050152,0.0481,0.49240000000000006,-9.7776,-0.0007,0.00019999999999999998,0.0186
9.690242256056402,0.0446,0.4949,-9.7958,-0.0005,0.00039999999999999996,0.018699999999999998
9.700242506062652,0.039599999999999996,0.5162,-9.7815,0.0006000000000000001,0.0006000000000000001,0.019
9.710242756068903,0.0127,0.505,-9.7819,0.0013,0.00039999999999999996,0.0186
9.720243006075153,0.0493,0.49420000000000003,-9.7884,0.0012000000000000001,0.00019999999999999998,0.019
9.730243256081403,0.043199999999999995,0.5228,-9.7856,0.0014,0.0005,0.0189
9.740243506087653,0.039,0.5225,-9.7807,0.0005,0.0007999999999999999,0.018799999999999997
9.750243756093903,0.0427,0.5277,-9.7882,0.0017,0.001,0.0193
9.760244006100153,0.011,0.5334,-9.7814,0.001,0.0007999999999999999,0.019
9.770244256106404,0.052,0.5212,-9.7982,-0.00030000000000000003,0.00030000000000000003,0.019200000000000002
9.780244506112654,0.052899999999999996,0.5241,-9.7933,-0.0007999999999999999,0.0005,0.018699999999999998
9.790244756118904,0.029999999999999995,0.5104,-9.7878,-0.0009,0.0007999999999999999,0.018799999999999997
9.800245006125154,0.035199999999999995,0.5368999999999999,-9.7834,-0.00019999999999999998,0.0007999999999999999,0.0194
9.810245256131404,0.0091,0.5312,-9.7829,-0.001,0.0005,0.018699999999999998
9.820245506137654,0.05109999999999999,0.5042,-9.789299999999999,-0.0015,0.0,0.019200000000000002
9.830245756143905,0.0441,0.5274,-9.79,-0.0017,0.00030000000000000003,0.0189
9.840246006150155,0.039,0.5186999999999999,-9.804499999999999,-0.0033,0.001,0.019
9.850246256156405,0.0398,0.5126999999999999,-9.7905,-0.0028,0.0010999999999999998,0.0196
9.860246506162655,0.0085,0.5214,-9.7823,-0.003,0.0007999999999999999,0.0191
9.870246756168905,0.0475,0.5179999999999999,-9.7991,-0.0041,0.0005,0.0196
9.880247006175155,0.0457,0.5086,-9.782499999999999,-0.0039,0.0009,0.019
9.890247256181405,0.0406,0.4937,-9.7989,-0.004399999999999999,0.0013,0.0191
9.900247506187656,0.0246,0.4943,-9.772699999999999,-0.0024000000000000002,0.0010999999999999998,0.0195
9.910247756193906,0.005399999999999999,0.5048999999999999,-9.7618,-0.0019,0.0007,0.0189
9.920248006200156,0.0491,0.48849999999999993,-9.7827,-0.0025,0.0007,0.019200000000000002
9.930248256206406,0.0552,0.5046,-9.7951,-0.0019,0.0009,0.018799999999999997
9.940248506212656,0.0203,0.5163,-9.7944,-0.0034,0.0012000000000000001,0.019
9.950248756218906,0.0292,0.5256000000000001,-9.7957,-0.0029,0.0007999999999999999,0.0194
9.960249006225157,0.0013,0.5212,-9.7686,-0.0028,0.0005,0.019
9.970249256231407,0.0513,0.504,-9.7755,-0.0034,0.00039999999999999996,0.0193
9.980249506237657,0.061,0.4886,-9.802299999999999,-0.004,0.0012000000000000001,0.0189
9.990249756243907,0.0268,0.4766,-9.7968,-0.0036,0.0018,0.019200000000000002
10.000250006250157,0.026699999999999998,0.5137,-9.7725,-0.0025,0.0015,0.0194
10.010250256256407,0.0038,0.506,-9.7736,-0.0015999999999999999,0.0009,0.019
10.020250506262657,0.034,0.49329999999999996,-9.7581,-0.002,0.00039999999999999996,0.019
10.030250756268908,0.05,0.5013,-9.7768,-0.0023,0.0007999999999999999,0.0189
10.040251006275158,0.0225,0.5014,-9.7856,-0.0018,0.0010999999999999998,0.018799999999999997
10.050251256281408,0.0343,0.5198,-9.7701,-0.0013,0.0010999999999999998,0.0193
10.060251506287658,0.010199999999999999,0.4966,-9.7873,-0.0014,0.0007,0.018799999999999997
10.070251756293908,0.039,0.4804,-9.79,-0.0014,0.00039999999999999996,0.0191
10.080252006300158,0.0411,0.5034000000000001,-9.7755,-0.001,0.0007999999999999999,0.018799999999999997
10.090252256306409,0.0199,0.4889,-9.7748,-0.0014,0.0013,0.019
10.100252506312659,0.0372,0.4997,-9.7691,-0.0,0.0013,0.019200000000000002
10.110252756318909,0.0036999999999999997,0.5115999999999999,-9.7652,0.0006000000000000001,0.001,0.019
10.120253006325159,0.0358,0.5181,-9.7734,-0.0,0.0005,0.0191
10.13025325633141,0.0431,0.5025,-9.794899999999998,-0.0007,0.001,0.018699999999999998
10.14025350633766,0.0191,0.5016999999999999,-9.7797,-0.0007999999999999999,0.0013,0.019
10.15025375634391,0.030299999999999997,0.5075,-9.7775,9.999999999999999e-05,0.0010999999999999998,0.019
10.16025400635016,-0.0014,0.4961,-9.7637,0.00039999999999999996,0.0007,0.018799999999999997
10.17025425635641,0.043399999999999994,0.4908,-9.79,-9.999999999999999e-05,0.00039999999999999996,0.0189
10.18025450636266,0.0368,0.5054000000000001,-9.777199999999999,0.0006000000000000001,0.0007,0.0186
10.19025475636891,0.0249,0.5055999999999999,-9.7813,9.999999999999999e-05,0.0007999999999999999,0.018699999999999998
10.20025500637516,0.020900000000000002,0.5113,-9.7653,0.0010999999999999998,0.0007,0.019
10.21025525638141,0.0066,0.5237,-9.7701,0.0005,0.0007,0.0189
10.22025550638766,0.038900000000000004,0.5082,-9.7899,-0.0009,0.0006000000000000001,0.019
10.23025575639391,0.030600000000000002,0.5001,-9.7827,-0.0007999999999999999,0.0009,0.018699999999999998
10.24025600640016,0.0273,0.49589999999999995,-9.7897,-0.0017,0.0013,0.0189
10.250256256406411,0.032299999999999995,0.5013,-9.7854,-0.00019999999999999998,0.0013,0.019
10.260256506412661,-0.001,0.5033,-9.768799999999999,-9.999999999999999e-05,0.0009,0.018699999999999998
10.270256756418911,0.021699999999999997,0.5016999999999999,-9.7667,-0.0007999999999999999,0.00039999999999999996,0.0189
10.280257006425161,0.0325,0.5117,-9.7777,-0.0009,0.0007,0.0186
10.290257256431412,0.0414,0.5056999999999999,-9.7967,-0.0015999999999999999,0.0013,0.0185
10.300257506437662,0.0169,0.5036999999999999,-9.7817,-0.001,0.0012000000000000001,0.0189
10.310257756443912,-0.0029,0.5272,-9.764399999999998,-0.0009,0.0006000000000000001,0.018699999999999998
10.320258006450162,0.0346,0.4991,-9.7869,-0.0021,0.00030000000000000003,0.018699999999999998
10.330258256456412,0.026899999999999997,0.48910000000000003,-9.7781,-0.0015,0.0007999999999999999,0.018699999999999998
10.340258506462662,0.0241,0.4764,-9.7791,-0.0013,0.001,0.0186
10.350258756468913,0.035199999999999995,0.5048,-9.7659,0.0005,0.0007999999999999999,0.019200000000000002
10.360259006475163,-0.0161,0.5195,-9.747599999999998,0.0014,0.0007,0.0184
10.370259256481413,0.0283,0.49959999999999993,-9.771,0.00030000000000000003,0.00039999999999999996,0.018799999999999997
10.380259506487663,0.0292,0.4764,-9.7683,0.0005,0.0007999999999999999,0.0185
10.390259756493913,0.0326,0.4901,-9.7857,0.0006000000000000001,0.001,0.0183
10.400260006500163,0.0213,0.5158,-9.770900000000001,0.001,0.0012000000000000001,0.0189
10.410260256506414,-0.0058,0.5261,-9.7645,0.0014,0.0009,0.0185
10.420260506512664,0.029599999999999998,0.5104,-9.7827,0.0006000000000000001,0.0006000000000000001,0.018799999999999997
10.430260756518914,0.0173,0.5073,-9.769,0.0005,0.0005,0.0185
10.440261006525164,0.044700000000000004,0.5185000000000001,-9.7974,-0.0007,0.0009,0.0186
10.450261256531414,0.0164,0.5102,-9.7812,-0.00019999999999999998,0.0010999999999999998,0.0189
10.460261506537664,-0.008,0.5145000000000001,-9.767000000000001,0.00030000000000000003,0.0007999999999999999,0.0186
10.470261756543914,0.018799999999999997,0.5005,-9.7738,-0.0006000000000000001,0.00039999999999999996,0.018799999999999997
10.480262006550165,0.0179,0.5089,-9.7566,-0.00039999999999999996,0.0006000000000000001,0.018699999999999998
10.490262256556415,0.0449,0.5123,-9.787999999999998,-0.0013,0.0007999999999999999,0.0185
10.500262506562665,0.0304,0.5064,-9.7872,-0.0007,0.0009,0.0189
10.510262756568915,-0.013300000000000001,0.5145000000000001,-9.7705,0.0005,0.0005,0.0184
10.520263006575165,0.014899999999999998,0.5032,-9.7601,-0.00019999999999999998,0.00019999999999999998,0.018799999999999997
10.530263256581415,0.026600000000000002,0.5006,-9.7584,-0.00019999999999999998,0.0006000000000000001,0.0186
10.540263506587666,0.0355,0.4928,-9.7814,-0.00019999999999999998,0.0009,0.0185
10.550263756593916,0.0221,0.5124,-9.782499999999999,-9.999999999999999e-05,0.0012000000000000001,0.019200000000000002
10.560264006600166,-0.0195,0.528,-9.7692,0.0007999999999999999,0.0009,0.0186
10.570264256606416,0.0181,0.5315,-9.758799999999999,-0.0006000000000000001,0.00039999999999999996,0.019
10.580264506612666,0.030299999999999997,0.5006,-9.7636,-0.0014,0.0007,0.0186
10.590264756618916,0.0421,0.4995,-9.7875,-0.0019,0.001,0.0185
10.600265006625166,0.0117,0.5025,-9.7964,-0.0015,0.0012000000000000001,0.019
10.610265256631417,-0.0243,0.5278999999999999,-9.755999999999998,-0.00019999999999999998,0.0006000000000000001,0.018699999999999998
10.620265506637667,0.0222,0.5055,-9.7669,-0.0009,0.00019999999999999998,0.018699999999999998
10.630265756643917,0.0195,0.4895,-9.775,-0.0007999999999999999,0.0006000000000000001,0.0186
10.640266006650167,0.036699999999999997,0.4985,-9.786200000000001,-0.0015,0.0007999999999999999,0.0185
10.650266256656417,0.0156,0.524,-9.7822,-0.0012000000000000001,0.0007999999999999999,0.0189
10.660266506662667,-0.0131,0.5254,-9.7606,0.00039999999999999996,0.00030000000000000003,0.018699999999999998
10.670266756668918,0.013,0.5144,-9.7483,-0.0007,0.00030000000000000003,0.0189
10.680267006675168,0.0193,0.4799999999999999,-9.7755,-0.0012000000000000001,0.0007,0.018799999999999997
10.690267256681418,0.0383,0.49100000000000005,-9.7921,-0.0012000000000000001,0.0013,0.018699999999999998
10.700267506687668,-0.002,0.4926,-9.778699999999999,-0.00039999999999999996,0.001,0.018799999999999997
10.710267756693918,-0.0065,0.48719999999999997,-9.7485,0.0017,0.00019999999999999998,0.0184
10.720268006700168,0.0033,0.49420000000000003,-9.7429,0.0021,0.00039999999999999996,0.018699999999999998
10.730268256706418,0.0124,0.5004,-9.7496,0.0015999999999999999,0.0007,0.0186
10.740268506712669,0.0508,0.5153,-9.7822,0.0007,0.0006000000000000001,0.0184
10.750268756718919,9.999999999999999e-05,0.5056999999999999,-9.794500000000001,0.00030000000000000003,0.0010999999999999998,0.018799999999999997
10.760269006725169,-0.0121,0.5196,-9.785499999999999,0.0012000000000000001,0.0007,0.018799999999999997
10.770269256731419,0.010199999999999999,0.5149,-9.766,0.001,9.999999999999999e-05,0.0186
10.78026950673767,0.012799999999999999,0.4789,-9.7598,0.0006000000000000001,0.0,0.0184
10.79026975674392,0.0156,0.47600000000000003,-9.7548,0.0007999999999999999,0.00039999999999999996,0.0185
10.80027000675017,0.0169,0.4951,-9.7711,0.0012000000000000001,0.0010999999999999998,0.018799999999999997
10.81027025675642,-0.008,0.5464,-9.7749,0.0021,0.0009,0.018699999999999998
10.82027050676267,-0.00030000000000000003,0.5243,-9.7624,0.0009,0.00039999999999999996,0.0184
10.83027075676892,0.0146,0.5048999999999999,-9.7554,-9.999999999999999e-05,-0.0,0.0185
10.84027100677517,0.031,0.508,-9.7813,-0.001,0.0006000000000000001,0.0183
10.85027125678142,0.0178,0.52,-9.8064,-0.0015,0.0013,0.019
10.86027150678767,-0.0121,0.5361999999999999,-9.802,-0.00039999999999999996,0.0007999999999999999,0.0186
10.87027175679392,-0.0207,0.5258999999999999,-9.750300000000001,-0.0015999999999999999,0.0,0.0186
10.88027200680017,0.0218,0.49979999999999997,-9.7469,-0.0026,9.999999999999999e-05,0.0186
10.890272256806421,0.0327,0.5003,-9.7671,-0.0031999999999999997,0.0009,0.0183
10.900272506812671,0.0072,0.5064,-9.799299999999999,-0.0038,0.0015,0.0189
10.910272756818921,-0.0106,0.526,-9.789299999999999,-0.0034,0.0009,0.0185
10.920273006825171,-0.0125,0.5262,-9.7613,-0.004699999999999999,-9.999999999999999e-05,0.0186
10.930273256831422,0.0168,0.49529999999999996,-9.764399999999998,-0.0053,-0.0,0.0184
10.940273506837672,0.035199999999999995,0.4886,-9.7692,-0.0050999999999999995,0.0007,0.0183
10.950273756843922,0.0031999999999999997,0.5132,-9.784099999999999,-0.0053,0.0012000000000000001,0.018799999999999997
10.960274006850172,-0.01,0.5206,-9.764299999999999,-0.0042,0.0009,0.018799999999999997
10.970274256856422,-0.004,0.5084,-9.7475,-0.004399999999999999,0.0005,0.0185
10.980274506862672,0.0103,0.4849,-9.7591,-0.0052,0.00039999999999999996,0.0186
10.990274756868923,0.0329,0.49379999999999996,-9.77,-0.005,0.0007999999999999999,0.0185
11.000275006875173,-0.0,0.5012,-9.8018,-0.0053,0.0014,0.0185
11.010275256881423,-0.0182,0.5095999999999999,-9.7685,-0.0036999999999999997,0.001,0.0186
11.020275506887673,-0.0179,0.5137,-9.7501,-0.0042,0.00030000000000000003,0.0186
11.030275756893923,0.0235,0.4732,-9.7675,-0.004399999999999999,0.00019999999999999998,0.0184
11.040276006900173,0.009600000000000001,0.4799999999999999,-9.7594,-0.0028,0.0006000000000000001,0.0182
11.050276256906423,-0.0,0.48650000000000004,-9.772,-0.0026,0.0013,0.0185
11.060276506912674,-0.0066,0.486,-9.769,-0.0007,0.0009,0.018699999999999998
11.070276756918924,-0.0262,0.5087,-9.7474,-0.00019999999999999998,0.00030000000000000003,0.0185
11.080277006925174,0.0106,0.4894,-9.7618,-0.0007999999999999999,-0.00019999999999999998,0.0184
11.090277256931424,0.0246,0.48019999999999996,-9.7511,9.999999999999999e-05,0.00019999999999999998,0.0183
11.100277506937674,0.0067,0.4937,-9.778599999999999,-0.00030000000000000003,0.0010999999999999998,0.0185
11.110277756943924,-0.008,0.5002,-9.7704,0.001,0.001,0.018699999999999998
11.120278006950175,-0.0048000000000000004,0.5112,-9.7711,0.0018,0.0006000000000000001,0.0184
11.130278256956425,0.0093,0.4969,-9.7766,0.0010999999999999998,0.00039999999999999996,0.0184
11.140278506962675,0.002,0.49579999999999996,-9.7607,0.0012000000000000001,0.0007999999999999999,0.0184
11.150278756968925,-0.0005,0.48960000000000004,-9.7777,0.0006000000000000001,0.0013,0.0185
11.160279006975175,0.0021,0.5159,-9.7817,0.0015999999999999999,0.0009,0.018699999999999998
11.170279256981425,-0.0229,0.5112,-9.763,0.0015,0.0005,0.0183
11.180279506987675,0.0048000000000000004,0.5028,-9.765500000000001,0.0007999999999999999,-0.0,0.0184
11.190279756993926,0.0172,0.4921,-9.7695,0.0005,0.00030000000000000003,0.0181
11.200280007000176,-0.0107,0.47739999999999994,-9.7675,-9.999999999999999e-05,0.0007,0.0183
11.210280257006426,0.006999999999999999,0.4904,-9.7896,0.0014,0.0009,0.0185
11.220280507012676,-0.038400000000000004,0.5009,-9.7555,0.0029,0.00030000000000000003,0.0183
11.230280757018926,0.018000000000000002,0.49240000000000006,-9.7522,0.0026,-0.0,0.0186
11.240281007025176,0.009399999999999999,0.49249999999999994,-9.755999999999998,0.0029,0.0005,0.0182
11.250281257031427,0.0033,0.5115999999999999,-9.7785,0.0019,0.0009,0.0185
11.260281507037677,0.0097,0.5306,-9.7696,0.0019,0.0014,0.018699999999999998
11.270281757043927,-0.0355,0.5252,-9.7684,0.0023,0.0009,0.0184
11.280282007050177,-0.0073999999999999995,0.5167999999999999,-9.7779,0.0010999999999999998,0.0005,0.018699999999999998
11.290282257056427,0.0021999999999999997,0.5068999999999999,-9.766,0.00039999999999999996,0.0006000000000000001,0.0184
11.300282507062677,0.015799999999999998,0.4967,-9.767000000000001,0.0005,0.0009,0.0183
11.310282757068927,-0.0048000000000000004,0.5062,-9.7715,0.0010999999999999998,0.0012000000000000001,0.018799999999999997
11.320283007075178,-0.030299999999999997,0.5195,-9.7661,0.0024000000000000002,0.0009,0.0185
11.330283257081428,-0.0104,0.5185000000000001,-9.7755,0.0015,0.0005,0.0186
11.340283507087678,0.0053,0.4884,-9.779300000000001,0.001,0.00030000000000000003,0.0184
11.350283757093928,0.0215,0.5035999999999999,-9.7829,0.0007999999999999999,0.0005,0.0183
11.360284007100178,-0.013300000000000001,0.5056999999999999,-9.7683,0.0012000000000000001,0.0007999999999999999,0.018699999999999998
11.370284257106428,-0.0286,0.5111,-9.7442,0.0024000000000000002,0.0005,0.018699999999999998
11.380284507112679,0.0019,0.5109,-9.7515,0.0018,0.0005,0.0189
11.390284757118929,-0.0113,0.5006,-9.750300000000001,0.0014,0.0007999999999999999,0.018699999999999998
11.400285007125179,0.0299,0.5028,-9.8025,0.0005,0.0013,0.018699999999999998
11.410285257131429,-0.014899999999999998,0.5153,-9.7971,0.0007,0.0015,0.0189
11.42028550713768,-0.0272,0.5248,-9.7701,0.0015999999999999999,0.001,0.018699999999999998
11.43028575714393,-0.0098,0.5149,-9.7594,0.0006000000000000001,0.0007999999999999999,0.018799999999999997
11.44028600715018,-0.0103,0.49,-9.7613,0.0005,0.001,0.018699999999999998
11.45028625715643,0.0193,0.5063,-9.7723,0.00019999999999999998,0.0012000000000000001,0.0186
11.46028650716268,-0.014100000000000001,0.526,-9.7761,0.0005,0.0014,0.0191
11.47028675716893,-0.0373,0.5198999999999999,-9.7591,0.002,0.0007,0.0186
11.48028700717518,-0.0196,0.5144,-9.7448,0.0013,0.00039999999999999996,0.019
11.49028725718143,-0.006,0.4844,-9.7526,0.0007,0.0005,0.018799999999999997
11.50028750718768,0.0236,0.48589999999999994,-9.7867,0.0009,0.0007999999999999999,0.018699999999999998
11.51028775719393,-0.0041,0.5081,-9.7867,0.0010999999999999998,0.0013,0.019200000000000002
11.52028800720018,-0.0357,0.5146000000000001,-9.7647,0.003,0.0009,0.018699999999999998
11.530288257206431,-0.0222,0.5048,-9.734399999999999,0.0034,0.0005,0.0189
11.540288507212681,-0.0086,0.48199999999999993,-9.7365,0.0039,0.0009,0.019
11.550288757218931,0.021699999999999997,0.4951,-9.773,0.0039,0.0017,0.018799999999999997
11.560289007225181,-0.0181,0.5189,-9.7907,0.0041,0.0018,0.0193
11.570289257231432,-0.0409,0.5189,-9.7614,0.0052,0.001,0.0189
11.580289507237682,-0.0115,0.5002,-9.7448,0.004399999999999999,0.0005,0.0189
11.590289757243932,0.0006000000000000001,0.4638,-9.7622,0.0045000000000000005,0.0007999999999999999,0.018699999999999998
11.600290007250182,0.002,0.4909,-9.770199999999999,0.0052,0.0010999999999999998,0.0186
11.610290257256432,-0.0172,0.5012,-9.7701,0.0055,0.0012000000000000001,0.0189
11.620290507262682,-0.0328,0.5126999999999999,-9.7635,0.0073999999999999995,0.0006000000000000001,0.018699999999999998
11.630290757268932,-0.0239,0.5174,-9.7365,0.0063999999999999994,0.00030000000000000003,0.018799999999999997
11.640291007275183,-0.0046,0.49379999999999996,-9.7397,0.006,0.00039999999999999996,0.0186
11.650291257281433,0.0224,0.5005,-9.7837,0.005399999999999999,0.0010999999999999998,0.0186
11.660291507287683,-0.0205,0.5198999999999999,-9.792399999999999,0.0053,0.0017,0.0191
11.670291757293933,-0.0448,0.523,-9.7684,0.0063999999999999994,0.0009,0.018799999999999997
11.680292007300183,-0.018000000000000002,0.523,-9.739799999999999,0.0060999999999999995,9.999999999999999e-05,0.018799999999999997
11.690292257306433,-0.0026,0.4915,-9.743,0.006,0.00039999999999999996,0.0186
11.700292507312684,0.0015999999999999999,0.4972,-9.763,0.0059,0.0014,0.018699999999999998
11.710292757318934,-0.0308,0.5139,-9.7854,0.0062,0.0015999999999999999,0.018799999999999997
11.720293007325184,-0.024,0.5477,-9.7635,0.0072,0.0009,0.0189
11.730293257331434,-0.026099999999999998,0.5488,-9.7595,0.0056,0.0005,0.018699999999999998
11.740293507337684,-0.014100000000000001,0.5204,-9.7578,0.0042,0.00030000000000000003,0.018699999999999998
11.750293757343934,0.0095,0.5178999999999999,-9.768699999999999,0.0031999999999999997,0.0007999999999999999,0.0186
11.760294007350184,-0.0221,0.5385,-9.775699999999999,0.0025,0.0012000000000000001,0.019200000000000002
11.770294257356435,-0.026899999999999997,0.5424,-9.7669,0.0026,0.0009,0.0189
11.780294507362685,-0.034699999999999995,0.5425,-9.7461,0.0013,0.00030000000000000003,0.019
11.790294757368935,-0.015300000000000001,0.5065,-9.7553,0.0005,0.00030000000000000003,0.0189
11.800295007375185,-0.0049,0.5169,-9.7569,0.00019999999999999998,0.0009,0.019
11.810295257381435,-0.0065,0.5257000000000001,-9.789,0.00019999999999999998,0.0015,0.019200000000000002
11.820295507387685,-0.0329,0.5414,-9.779599999999999,0.0007,0.0013,0.019200000000000002
11.830295757393936,-0.0338,0.5398,-9.757200000000001,-0.00030000000000000003,0.0009,0.019
11.840296007400186,-0.014999999999999998,0.5066,-9.7678,-0.0017,0.0006000000000000001,0.0189
11.850296257406436,-0.006999999999999999,0.5031,-9.7564,-0.0015,0.0007,0.0189
11.860296507412686,-0.0234,0.5246,-9.7623,-0.0012000000000000001,0.0012000000000000001,0.0191
11.870296757418936,-0.0312,0.5333,-9.7622,-0.00030000000000000003,0.001,0.0194
11.880297007425186,-0.031,0.5258999999999999,-9.7581,-0.0006000000000000001,0.0007999999999999999,0.019200000000000002
11.890297257431437,-0.0167,0.5091,-9.7608,-0.0012000000000000001,0.00039999999999999996,0.0193
11.900297507437687,0.0036,0.517,-9.775,-0.001,0.0005,0.0191
11.910297757443937,-0.020399999999999998,0.5157,-9.7837,-0.0010999999999999998,0.0010999999999999998,0.0193
11.920298007450187,-0.0317,0.5288,-9.7716,-0.00030000000000000003,0.0010999999999999998,0.0195
11.930298257456437,-0.0455,0.524,-9.7403,-0.0006000000000000001,0.0006000000000000001,0.019200000000000002
11.940298507462687,-0.017,0.4986,-9.7325,-0.00030000000000000003,0.00030000000000000003,0.0194
11.950298757468937,0.0089,0.5076999999999999,-9.7585,0.0012000000000000001,0.0009,0.019
11.960299007475188,-0.0411,0.4981,-9.767000000000001,0.0010999999999999998,0.0015999999999999999,0.0194
11.970299257481438,-0.0268,0.5139,-9.7667,0.0025,0.0013,0.0196
11.980299507487688,-0.0443,0.5373,-9.7607,0.0021,0.0005,0.0193
11.990299757493938,-0.0112,0.5135,-9.7631,0.001,0.0,0.0194
12.000300007500188,-0.0031,0.5072,-9.7608,0.0013,0.0006000000000000001,0.019200000000000002
12.010300257506438,-0.0312,0.5161,-9.7618,0.0007999999999999999,0.0012000000000000001,0.0197
12.020300507512689,-0.0171,0.5353,-9.761899999999999,0.0015999999999999999,0.001,0.0197
12.030300757518939,-0.0472,0.5267,-9.7556,0.0015,0.0007,0.0195
12.040301007525189,-0.0201,0.5181,-9.7621,0.0007999999999999999,0.0005,0.019799999999999998
12.050301257531439,0.004,0.5036999999999999,-9.780999999999999,0.0006000000000000001,0.0007,0.019200000000000002
12.06030150753769,-0.026600000000000002,0.5063,-9.771199999999999,-0.00030000000000000003,0.001,0.0195
12.07030175754394,-0.0284,0.5357,-9.7569,0.0010999999999999998,0.0007,0.019799999999999998
12.08030200755019,-0.053200000000000004,0.5415,-9.7381,0.001,0.00039999999999999996,0.0196
12.09030225755644,-0.014799999999999999,0.5363,-9.740699999999999,-0.00039999999999999996,-0.0,0.0199
12.10030250756269,-0.0010999999999999998,0.5201,-9.7532,-0.0007,0.00039999999999999996,0.0194
12.11030275756894,-0.0185,0.49100000000000005,-9.7799,-0.0009,0.001,0.0195
12.12030300757519,-0.0431,0.5099,-9.7475,0.0007,0.0010999999999999998,0.0203
12.13030325758144,-0.030899999999999997,0.5228,-9.7661,0.0010999999999999998,0.0006000000000000001,0.0196
12.14030350758769,-0.012899999999999998,0.51,-9.769,0.00039999999999999996,0.0,0.0197
12.15030375759394,-0.0203,0.5073,-9.7607,0.00019999999999999998,0.0005,0.0196
12.16030400760019,-0.0214,0.5249,-9.7652,-0.00039999999999999996,0.001,0.019799999999999998
12.17030425760644,-0.0314,0.5387000000000001,-9.7571,9.999999999999999e-05,0.001,0.0202
12.180304507612691,-0.0552,0.5277999999999999,-9.7532,-0.00030000000000000003,0.0006000000000000001,0.0197
12.190304757618941,-0.0073,0.48989999999999995,-9.764000000000001,-0.0009,-0.0,0.019799999999999998
12.200305007625191,-0.0177,0.49820000000000003,-9.7748,-0.0005,0.00039999999999999996,0.0197
12.210305257631441,-0.043,0.5254,-9.7544,-0.0012000000000000001,0.0005,0.0199
12.220305507637692,-0.0143,0.5169,-9.754999999999999,-0.00039999999999999996,0.00030000000000000003,0.0199
12.230305757643942,-0.0519,0.5028,-9.745099999999999,-0.0010999999999999998,-9.999999999999999e-05,0.0196
12.240306007650192,-0.0157,0.4967,-9.7544,-0.0015,-9.999999999999999e-05,0.019799999999999998
12.250306257656442,-0.011,0.5127999999999999,-9.735299999999999,-0.0012000000000000001,9.999999999999999e-05,0.0195
12.260306507662692,-0.0174,0.5063,-9.7867,-0.0012000000000000001,0.0007,0.0197
12.270306757668942,-0.0388,0.5117,-9.771,0.00030000000000000003,0.0007,0.02
12.280307007675193,-0.052,0.5289,-9.7564,0.0,0.00019999999999999998,0.0199
12.290307257681443,-0.014999999999999998,0.5264,-9.7719,-0.0010999999999999998,-9.999999999999999e-05,0.019799999999999998
12.300307507687693,-0.018699999999999998,0.5118,-9.7527,-0.0015,0.00030000000000000003,0.0196
12.310307757693943,-0.0283,0.5044,-9.770199999999999,-0.0019,0.0009,0.0199
12.320308007700193,-0.035199999999999995,0.5163,-9.7646,-0.0014,0.0007,0.0201
12.330308257706443,-0.050600000000000006,0.5175,-9.7516,-0.0018,9.999999999999999e-05,0.0196
12.340308507712693,-0.015899999999999997,0.48979999999999996,-9.7538,-0.0018,-0.0006000000000000001,0.0195
12.350308757718944,-0.0161,0.48910000000000003,-9.7636,-0.0007999999999999999,-0.00030000000000000003,0.0194
12.360309007725194,-0.0288,0.5048,-9.7711,-0.0012000000000000001,0.0006000000000000001,0.0196
12.370309257731444,-0.0439,0.5296000000000001,-9.7667,-9.999999999999999e-05,9.999999999999999e-05,0.0199
12.380309507737694,-0.0508,0.5250999999999999,-9.7507,-0.0005,-0.0006000000000000001,0.0196
12.390309757743944,-0.014100000000000001,0.5034000000000001,-9.758899999999999,-0.0015,-0.0006000000000000001,0.019799999999999998
12.400310007750194,-0.0101,0.5019,-9.7749,-0.0018,-0.0,0.0195
12.410310257756445,-0.0395,0.492,-9.767199999999999,-0.0021999999999999997,0.0005,0.019799999999999998
12.420310507762695,-0.0297,0.5165000000000001,-9.764100000000001,-0.0005,0.00039999999999999996,0.02
12.430310757768945,-0.0541,0.5161,-9.754,-0.0005,-9.999999999999999e-05,0.0197
12.440311007775195,-0.0248,0.49179999999999996,-9.7562,-0.0013,-0.00019999999999999998,0.0197
12.450311257781445,-0.0014,0.4906,-9.7696,-0.0010999999999999998,0.0,0.0193
12.460311507787695,-0.0385,0.5042,-9.7759,-0.0013,0.00039999999999999996,0.019799999999999998
12.470311757793946,-0.0325,0.5287,-9.7621,0.0,9.999999999999999e-05,0.019799999999999998
12.480312007800196,-0.0496,0.5139,-9.7661,-0.0005,-0.00039999999999999996,0.0194
12.490312257806446,-0.030699999999999998,0.4915,-9.7531,-0.0007999999999999999,-0.0007,0.0197
12.500312507812696,0.007899999999999999,0.4914,-9.7713,-0.0005,-0.00039999999999999996,0.019200000000000002
12.510312757818946,-0.0422,0.5107999999999999,-9.7805,-0.0009,-0.0,0.019799999999999998
12.520313007825196,-0.0452,0.5235,-9.766399999999999,-9.999999999999999e-05,-0.00019999999999999998,0.0197
12.530313257831446,-0.0467,0.5127999999999999,-9.7244,-0.00019999999999999998,-0.0007,0.0197
12.540313507837697,-0.0112,0.4846,-9.757499999999999,-0.00030000000000000003,-0.0007999999999999999,0.0197
12.550313757843947,-0.014799999999999999,0.4949,-9.7584,0.00039999999999999996,-9.999999999999999e-05,0.0196
12.560314007850197,-0.0222,0.5286,-9.7746,9.999999999999999e-05,9.999999999999999e-05,0.02
12.570314257856447,-0.0561,0.5207999999999999,-9.760399999999999,0.0025,-0.00039999999999999996,0.0197
12.580314507862697,-0.0497,0.5229,-9.7371,0.0021999999999999997,-0.0007999999999999999,0.019799999999999998
12.590314757868947,-0.0147,0.4877,-9.772400000000001,0.0015999999999999999,-0.00039999999999999996,0.0197
12.600315007875198,-0.013,0.49379999999999996,-9.782399999999999,0.0018,9.999999999999999e-05,0.0194
12.610315257881448,-0.0373,0.5147999999999999,-9.7853,0.0015999999999999999,0.00019999999999999998,0.0199
12.620315507887698,-0.053200000000000004,0.5215,-9.7606,0.0026999999999999997,-0.00039999999999999996,0.019799999999999998
12.630315757893948,-0.046099999999999995,0.5228,-9.7416,0.0028,-0.0010999999999999998,0.02
12.640316007900198,-0.0228,0.5117,-9.739,0.0021,-0.0013,0.0199
12.650316257906448,-0.0097,0.5123,-9.7613,0.0018,-0.001,0.0199
12.660316507912698,-0.0442,0.5231,-9.776,0.0015999999999999999,-0.0006000000000000001,0.0203
12.670316757918949,-0.055900000000000005,0.5379,-9.7522,0.0026,-0.0012000000000000001,0.0201
12.680317007925199,-0.0162,0.5119,-9.7595,0.0010999999999999998,-0.0015,0.02
12.690317257931449,-0.030600000000000002,0.46369999999999995,-9.7566,0.0017,-0.0012000000000000001,0.019799999999999998
12.700317507937699,-0.0112,0.49249999999999994,-9.7705,0.0019,-0.0005,0.02
12.71031775794395,-0.037599999999999995,0.5093,-9.7768,0.0029,-9.999999999999999e-05,0.02
12.7203180079502,-0.0557,0.5126999999999999,-9.7553,0.0048000000000000004,-0.0007999999999999999,0.0199
12.73031825795645,-0.032,0.5176,-9.7492,0.0036999999999999997,-0.001,0.02
12.7403185079627,-0.0263,0.5008,-9.7752,0.0026,-0.001,0.02
12.75031875796895,-0.0163,0.5298999999999999,-9.7799,0.0017,-0.0007,0.02
12.7603190079752,-0.0349,0.5275,-9.7746,0.0007999999999999999,-0.0007,0.020399999999999998
12.77031925798145,-0.0567,0.5154,-9.7647,0.0017,-0.0015,0.02
12.7803195079877,-0.0455,0.49589999999999995,-9.755999999999998,0.0010999999999999998,-0.0017,0.0203
12.79031975799395,-0.023,0.4904,-9.7715,0.0010999999999999998,-0.0014,0.0202
12.8003200080002,-0.00030000000000000003,0.5009,-9.789,0.0015,-0.001,0.019799999999999998
12.81032025800645,-0.0413,0.52,-9.7652,0.0021999999999999997,-0.0010999999999999998,0.0202
12.820320508012701,-0.0631,0.5114,-9.746599999999999,0.0031999999999999997,-0.0015999999999999999,0.0197
12.830320758018951,-0.0247,0.5055999999999999,-9.7605,0.0024000000000000002,-0.0018,0.0201
12.840321008025201,-0.0212,0.5073,-9.7606,0.002,-0.0013,0.0199
12.850321258031451,-0.018000000000000002,0.5156,-9.7928,0.0014,-0.0009,0.0199
12.860321508037702,-0.043,0.5206999999999999,-9.769,0.002,-0.0007,0.0203
12.870321758043952,-0.0469,0.5086,-9.7704,0.0024000000000000002,-0.0010999999999999998,0.02
12.880322008050202,-0.0334,0.5107,-9.7601,0.002,-0.0015,0.0205
12.890322258056452,-0.023,0.5055999999999999,-9.7686,0.002,-0.0012000000000000001,0.02
12.900322508062702,-0.0315,0.5083,-9.796000000000001,0.0017,-0.0007999999999999999,0.020399999999999998
12.910322758068952,-0.0428,0.5289,-9.7751,0.0019,-0.0010999999999999998,0.020399999999999998
12.920323008075203,-0.0458,0.524,-9.768799999999999,0.0015999999999999999,-0.0018,0.02
12.930323258081453,-0.0281,0.5013,-9.7622,0.0015999999999999999,-0.0023,0.0199
12.940323508087703,-0.0152,0.5067999999999999,-9.7539,0.0017,-0.0018,0.019799999999999998
12.950323758093953,-0.021599999999999998,0.5134,-9.7755,0.0012000000000000001,-0.0010999999999999998,0.02
12.960324008100203,-0.0443,0.5172,-9.770299999999999,0.0015,-0.0012000000000000001,0.0202
12.970324258106453,-0.047,0.5269,-9.762,0.0013,-0.0015999999999999999,0.0203
12.980324508112703,-0.0164,0.5236,-9.785,0.00019999999999999998,-0.0019,0.0202
12.990324758118954,-0.0167,0.5015999999999999,-9.777,-9.999999999999999e-05,-0.0015,0.02
13.000325008125204,-0.0397,0.5104,-9.7858,-0.00039999999999999996,-0.0009,0.020399999999999998
13.010325258131454,-0.0479,0.5192,-9.7689,0.0007,-0.0012000000000000001,0.0205
13.020325508137704,-0.0366,0.5115,-9.75,0.0006000000000000001,-0.0017,0.0203
13.030325758143954,-0.017499999999999998,0.4914,-9.767000000000001,0.0007999999999999999,-0.0017,0.0201
13.040326008150204,-0.0056,0.4876,-9.7768,0.0006000000000000001,-0.0013,0.0199
13.050326258156455,-0.044,0.5114,-9.7929,0.0005,-0.001,0.0205
13.060326508162705,-0.053899999999999997,0.5294,-9.7835,0.0017,-0.0018,0.0201
13.070326758168955,-0.0365,0.5244,-9.7624,0.00030000000000000003,-0.0023,0.0202
13.080327008175205,-0.017499999999999998,0.4821,-9.7599,0.00039999999999999996,-0.0023,0.02
13.090327258181455,0.0026,0.5003,-9.7926,9.999999999999999e-05,-0.0017,0.02
13.100327508187705,-0.0436,0.5357999999999999,-9.7807,-9.999999999999999e-05,-0.001,0.0206
13.110327758193955,-0.048999999999999995,0.5191,-9.7871,0.001,-0.0017,0.0199
13.120328008200206,-0.0382,0.5022,-9.753,0.0006000000000000001,-0.0021999999999999997,0.0206
13.130328258206456,-0.026,0.48019999999999996,-9.760299999999999,0.001,-0.002,0.0201
13.140328508212706,-0.0009,0.4987,-9.7722,0.0010999999999999998,-0.0015,0.0203
13.150328758218956,-0.027,0.5139999999999999,-9.7801,0.0018,-0.0013,0.020399999999999998
13.160329008225206,-0.060099999999999994,0.5179999999999999,-9.7708,0.0028,-0.0018,0.0201
13.170329258231456,-0.032299999999999995,0.511,-9.7607,0.0017,-0.0024000000000000002,0.0202
13.180329508237707,-0.0212,0.488,-9.7646,0.002,-0.0021,0.0201
13.190329758243957,-0.0067,0.4997,-9.7921,0.0021,-0.0017,0.02
13.200330008250207,-0.0302,0.5191,-9.769799999999998,0.0029,-0.0015999999999999999,0.020399999999999998
13.210330258256457,-0.0487,0.5139999999999999,-9.7683,0.0034999999999999996,-0.0021,0.02
13.220330508262707,-0.0313,0.5001,-9.7611,0.0033,-0.0025,0.020399999999999998
13.230330758268957,-0.0135,0.51,-9.773299999999999,0.0033,-0.0021,0.0202
13.240331008275207,-0.0199,0.5268,-9.8074,0.0026999999999999997,-0.0017,0.0202
13.250331258281458,-0.045399999999999996,0.5228,-9.7737,0.0034999999999999996,-0.002,0.020399999999999998
13.260331508287708,-0.040499999999999994,0.5005,-9.7637,0.0038,-0.0026999999999999997,0.0201
13.270331758293958,-0.003,0.49240000000000006,-9.7532,0.0036999999999999997,-0.0029,0.0202
13.280332008300208,-0.0119,0.4888,-9.777199999999999,0.004399999999999999,-0.0019,0.0199
13.290332258306458,-0.0401,0.5043,-9.7929,0.0043,-0.0014,0.0202
13.300332508312708,-0.0464,0.5197,-9.7789,0.0059,-0.0018,0.0203
13.310332758318959,-0.0423,0.532,-9.7785,0.0052,-0.0026,0.0202
13.320333008325209,-0.0185,0.494,-9.776,0.0048000000000000004,-0.0029,0.0199
13.330333258331459,0.0085,0.49620000000000003,-9.7818,0.0045000000000000005,-0.0021999999999999997,0.02
13.340333508337709,-0.0302,0.5286,-9.803,0.004,-0.0019,0.020399999999999998
13.35033375834396,-0.0603,0.5273,-9.7647,0.0055,-0.0024000000000000002,0.02
13.36033400835021,-0.0322,0.5202,-9.7576,0.004699999999999999,-0.0026999999999999997,0.0203
13.37033425835646,-0.0085,0.4954,-9.7871,0.004699999999999999,-0.0025,0.02
13.38033450836271,-0.0007999999999999999,0.5133,-9.803199999999999,0.0041,-0.002,0.02
13.39033475836896,-0.0358,0.5372,-9.7913,0.004399999999999999,-0.0018,0.020399999999999998
13.40033500837521,-0.0567,0.532,-9.7887,0.0052,-0.0025,0.019799999999999998
13.41033525838146,-0.0238,0.5205000000000001,-9.7792,0.0038,-0.0026,0.0203
13.42033550838771,-0.0254,0.5075999999999999,-9.77,0.0042,-0.0025,0.0199
13.43033575839396,-0.0042,0.5075999999999999,-9.7871,0.004,-0.0021999999999999997,0.019799999999999998
13.44033600840021,-0.037599999999999995,0.5084,-9.7805,0.0048000000000000004,-0.0021,0.020399999999999998
13.45033625840646,-0.0394,0.5246,-9.785,0.0056,-0.0024000000000000002,0.02
13.460336508412711,-0.0215,0.5205000000000001,-9.797500000000001,0.004699999999999999,-0.0026999999999999997,0.0202
13.470336758418961,-0.017499999999999998,0.5059,-9.786499999999998,0.0045000000000000005,-0.0026999999999999997,0.02
13.480337008425211,-0.0223,0.5485,-9.799900000000001,0.0036999999999999997,-0.0021,0.0203
