Time [s],ACC X [m/s^2],ACC Y [m/s^2],ACC Z [m/s^2],GYRO X [rad/s],GYRO Y [rad/s],GYRO Z [rad/s]
0.0,-0.0172,0.2618,-9.779300000000001,0.0007999999999999999,0.0034999999999999996,0.0103
0.01000050002500125,-0.0364,0.2568,-9.778,0.0009,0.0033,0.009899999999999999
0.0200010000500025,-0.027999999999999997,0.24810000000000001,-9.7599,0.001,0.0029,0.0101
0.03000150007500375,-0.0305,0.2409,-9.7391,0.0013,0.0029,0.01
0.040002000100005,-0.015300000000000001,0.24650000000000002,-9.745099999999999,0.0015,0.0031999999999999997,0.0101
0.05000250012500625,-0.0199,0.2439,-9.7507,0.0014,0.0034999999999999996,0.0101
0.0600030001500075,-0.0265,0.2441,-9.7617,0.0014,0.0034,0.0101
0.07000350017500875,-0.0138,0.2664,-9.768699999999999,0.0009,0.0031,0.0103
0.08000400020001,-0.0392,0.2682,-9.7701,0.00030000000000000003,0.003,0.01
0.09000450022501125,-0.0325,0.25579999999999997,-9.7667,-0.0006000000000000001,0.0028,0.0103
0.1000050002500125,-0.033,0.2505,-9.751,-0.0007999999999999999,0.0028,0.010199999999999999
0.11000550027501375,-0.0215,0.24480000000000002,-9.75,-0.0009,0.0029,0.010199999999999999
0.120006000300015,-0.0239,0.2409,-9.758799999999999,-0.0007,0.0031,0.0103
0.13000650032501626,-0.025,0.2577,-9.781099999999999,-0.00039999999999999996,0.0031,0.0101
0.1400070003500175,-0.0338,0.2662,-9.7681,-0.0007999999999999999,0.0029,0.010199999999999999
0.15000750037501875,-0.0328,0.2559,-9.7717,-0.0012000000000000001,0.0025,0.01
0.16000800040002,-0.0321,0.25170000000000003,-9.7618,-0.0015999999999999999,0.0021999999999999997,0.0101
0.17000850042502125,-0.0284,0.24589999999999998,-9.7508,-0.0018,0.0024000000000000002,0.0101
0.1800090004500225,-0.0203,0.24139999999999998,-9.750599999999999,-0.0018,0.0025,0.010199999999999999
0.19000950047502374,-0.024399999999999998,0.24819999999999998,-9.7564,-0.002,0.0025,0.010199999999999999
0.200010000500025,-0.0249,0.24650000000000002,-9.7648,-0.0019,0.0026999999999999997,0.010199999999999999
0.21001050052502626,-0.0372,0.267,-9.773299999999999,-0.002,0.0023,0.0105
0.2200110005500275,-0.0377,0.25279999999999997,-9.7681,-0.0025,0.0021999999999999997,0.010199999999999999
0.23001150057502875,-0.0351,0.2329,-9.753499999999999,-0.0023,0.002,0.0104
0.24001200060003,-0.025300000000000003,0.2382,-9.739299999999998,-0.0021,0.0021,0.0103
0.2500125006250313,-0.0144,0.2383,-9.758799999999999,-0.0021,0.0024000000000000002,0.010199999999999999
0.2600130006500325,-0.0365,0.2428,-9.7582,-0.0019,0.0024000000000000002,0.0103
0.27001350067503377,-0.030899999999999997,0.25079999999999997,-9.767299999999999,-0.0021999999999999997,0.0023,0.010199999999999999
0.280014000700035,-0.0397,0.26649999999999996,-9.777199999999999,-0.0023,0.0021,0.0103
0.29001450072503626,-0.0429,0.2536,-9.7699,-0.0031999999999999997,0.0018,0.0101
0.3000150007500375,-0.0385,0.2366,-9.7581,-0.0033,0.0015,0.010199999999999999
0.31001550077503875,-0.0239,0.23600000000000002,-9.753499999999999,-0.0033,0.0015999999999999999,0.010199999999999999
0.32001600080004,-0.029300000000000003,0.2422,-9.7554,-0.003,0.0018,0.0103
0.33001650082504125,-0.033100000000000004,0.2402,-9.7585,-0.0031999999999999997,0.0018,0.0103
0.3400170008500425,-0.0246,0.2467,-9.7737,-0.0033,0.0018,0.0104
0.35001750087504374,-0.0446,0.25579999999999997,-9.7697,-0.0034999999999999996,0.0015,0.010199999999999999
0.360018000900045,-0.038,0.24689999999999998,-9.7647,-0.0041,0.0012000000000000001,0.0103
0.37001850092504623,-0.0413,0.2291,-9.7526,-0.0043,0.0012000000000000001,0.0101
0.3800190009500475,-0.026699999999999998,0.2275,-9.741900000000001,-0.0041,0.0012000000000000001,0.0101
0.3900195009750487,-0.020399999999999998,0.2297,-9.7459,-0.0043,0.0015,0.0101
0.40002000100005,-0.0335,0.23199999999999998,-9.7713,-0.0042,0.0017,0.0101
0.4100205010250513,-0.032299999999999995,0.2623,-9.7823,-0.004699999999999999,0.0015,0.010199999999999999
0.4200210010500525,-0.0446,0.2597,-9.772599999999999,-0.0053,0.0010999999999999998,0.0101
0.43002150107505377,-0.040799999999999996,0.2416,-9.7695,-0.0058,0.0007999999999999999,0.010199999999999999
0.440022001100055,-0.0366,0.2355,-9.7622,-0.0058,0.0010999999999999998,0.0101
0.45002250112505626,-0.0328,0.2322,-9.7559,-0.0059,0.0010999999999999998,0.0101
0.4600230011500575,-0.0337,0.22659999999999997,-9.7571,-0.005399999999999999,0.001,0.010199999999999999
0.47002350117505876,-0.0344,0.23379999999999998,-9.7671,-0.0052,0.001,0.0101
0.48002400120006,-0.0308,0.243,-9.7759,-0.0055,0.0007,0.0101
0.49002450122506125,-0.044,0.24550000000000002,-9.7779,-0.0053,0.0005,0.01
0.5000250012500626,-0.046099999999999995,0.23059999999999997,-9.7596,-0.005399999999999999,0.00030000000000000003,0.01
0.5100255012750637,-0.0324,0.22169999999999998,-9.7539,-0.0052,0.00039999999999999996,0.0101
0.520026001300065,-0.031799999999999995,0.22469999999999998,-9.7598,-0.0049,0.0006000000000000001,0.01
0.5300265013250662,-0.0349,0.22529999999999997,-9.7621,-0.005,0.0007999999999999999,0.0101
0.5400270013500675,-0.0348,0.2352,-9.7681,-0.0050999999999999995,0.0005,0.0101
0.5500275013750687,-0.027999999999999997,0.2445,-9.7766,-0.0055,0.0005,0.0101
0.56002800140007,-0.0458,0.2403,-9.7735,-0.0050999999999999995,0.00039999999999999996,0.0101
0.5700285014250712,-0.0482,0.23640000000000003,-9.7627,-0.0056,0.00019999999999999998,0.010199999999999999
0.5800290014500725,-0.035199999999999995,0.216,-9.7571,-0.0053,9.999999999999999e-05,0.0101
0.5900295014750737,-0.0348,0.21819999999999998,-9.764299999999999,-0.004699999999999999,0.00019999999999999998,0.0101
0.600030001500075,-0.0335,0.2203,-9.7609,-0.0045000000000000005,0.00019999999999999998,0.01
0.6100305015250762,-0.037599999999999995,0.2254,-9.7696,-0.0042,-0.0,0.01
0.6200310015500775,-0.027999999999999997,0.23909999999999998,-9.781099999999999,-0.0046,-0.0,0.01
0.6300315015750787,-0.053200000000000004,0.23540000000000003,-9.7799,-0.0043,-9.999999999999999e-05,0.009899999999999999
0.64003200160008,-0.0439,0.2307,-9.7682,-0.0049,-0.00039999999999999996,0.01
0.6500325016250813,-0.0361,0.21779999999999997,-9.7635,-0.004699999999999999,-0.00030000000000000003,0.01
0.6600330016500825,-0.028200000000000003,0.2201,-9.7706,-0.0045000000000000005,-9.999999999999999e-05,0.01
0.6700335016750838,-0.0436,0.2262,-9.760299999999999,-0.004399999999999999,-0.00019999999999999998,0.0101
0.680034001700085,-0.0337,0.21949999999999997,-9.7661,-0.0046,-0.00019999999999999998,0.01
0.6900345017250863,-0.0265,0.23640000000000003,-9.7912,-0.0048000000000000004,-9.999999999999999e-05,0.010199999999999999
0.7000350017500875,-0.051699999999999996,0.2382,-9.786,-0.0048000000000000004,-0.00019999999999999998,0.009899999999999999
0.7100355017750888,-0.0411,0.22560000000000002,-9.7785,-0.0053,-0.0007999999999999999,0.01
0.72003600180009,-0.0413,0.21220000000000003,-9.7611,-0.004699999999999999,-0.0007,0.0098
0.7300365018250913,-0.0281,0.21380000000000002,-9.7647,-0.0046,-0.00039999999999999996,0.009899999999999999
0.7400370018500925,-0.0327,0.21889999999999998,-9.7719,-0.0046,-0.00039999999999999996,0.009899999999999999
0.7500375018750938,-0.0444,0.22659999999999997,-9.775699999999999,-0.0045000000000000005,-0.0005,0.009899999999999999
0.760038001900095,-0.0342,0.23570000000000002,-9.796899999999999,-0.005,-0.0005,0.01
0.7700385019250963,-0.0508,0.2363,-9.791,-0.0050999999999999995,-0.0007,0.0098
0.7800390019500975,-0.040299999999999996,0.2362,-9.7785,-0.0060999999999999995,-0.0010999999999999998,0.009899999999999999
0.7900395019750988,-0.0424,0.20609999999999998,-9.7696,-0.0060999999999999995,-0.0009,0.0098
0.8000400020001,-0.0378,0.2154,-9.765500000000001,-0.0058,-0.0007,0.01
0.8100405020251013,-0.029599999999999998,0.22399999999999998,-9.7704,-0.0060999999999999995,-0.0005,0.01
0.8200410020501026,-0.040799999999999996,0.2208,-9.784099999999999,-0.0063,-0.0006000000000000001,0.009899999999999999
0.8300415020751037,-0.0346,0.22989999999999997,-9.796199999999999,-0.0066,-0.0007,0.009899999999999999
0.840042002100105,-0.0482,0.2324,-9.7856,-0.0067,-0.0007999999999999999,0.009899999999999999
0.8500425021251062,-0.0457,0.223,-9.7759,-0.0072,-0.001,0.009899999999999999
0.8600430021501075,-0.034699999999999995,0.2016,-9.774,-0.006999999999999999,-0.001,0.009899999999999999
0.8700435021751087,-0.0401,0.2102,-9.770199999999999,-0.0063999999999999994,-0.0009,0.009899999999999999
0.88004400220011,-0.0332,0.2203,-9.769799999999998,-0.0063,-0.001,0.009899999999999999
0.8900445022251112,-0.0397,0.2173,-9.7836,-0.0063999999999999994,-0.001,0.009899999999999999
0.9000450022501125,-0.0393,0.2137,-9.790799999999999,-0.0067,-0.0010999999999999998,0.009899999999999999
0.9100455022751137,-0.0445,0.22690000000000002,-9.784099999999999,-0.0065,-0.0013,0.009899999999999999
0.920046002300115,-0.0453,0.2262,-9.7795,-0.0071,-0.0015,0.009899999999999999
0.9300465023251162,-0.0377,0.1987,-9.7743,-0.006999999999999999,-0.0013,0.0098
0.9400470023501175,-0.0388,0.2055,-9.767199999999999,-0.0066,-0.0012000000000000001,0.01
0.9500475023751187,-0.026600000000000002,0.2131,-9.770299999999999,-0.0063999999999999994,-0.0010999999999999998,0.009899999999999999
0.96004800240012,-0.0426,0.2076,-9.7806,-0.0060999999999999995,-0.0010999999999999998,0.009899999999999999
0.9700485024251213,-0.0375,0.2173,-9.7959,-0.0063999999999999994,-0.0010999999999999998,0.01
0.9800490024501225,-0.0498,0.2278,-9.789200000000001,-0.0062,-0.0013,0.01
0.9900495024751238,-0.046099999999999995,0.21849999999999997,-9.7839,-0.0069,-0.0015999999999999999,0.009899999999999999
1.000050002500125,-0.0407,0.2032,-9.7748,-0.0069,-0.0017,0.009899999999999999
1.0100505025251263,-0.0362,0.1971,-9.773299999999999,-0.0066,-0.0015,0.009899999999999999
1.0200510025501275,-0.0348,0.201,-9.7758,-0.0062,-0.0015,0.0098
1.0300515025751287,-0.0484,0.20240000000000002,-9.7806,-0.0060999999999999995,-0.0015999999999999999,0.009899999999999999
1.04005200260013,-0.0349,0.20479999999999998,-9.7933,-0.0060999999999999995,-0.0017,0.009899999999999999
1.0500525026251313,-0.043,0.2191,-9.796299999999999,-0.0058,-0.0017,0.009899999999999999
1.0600530026501325,-0.0462,0.21580000000000002,-9.779,-0.0060999999999999995,-0.002,0.0098
1.0700535026751337,-0.0445,0.19499999999999998,-9.7696,-0.0062,-0.002,0.009899999999999999
1.080054002700135,-0.032299999999999995,0.1906,-9.778,-0.0058,-0.0017,0.009899999999999999
1.0900545027251363,-0.0399,0.1996,-9.7728,-0.005,-0.0015999999999999999,0.009899999999999999
1.1000550027501375,-0.0375,0.1991,-9.7851,-0.005,-0.0017,0.009899999999999999
1.1100555027751386,-0.0395,0.1877,-9.7921,-0.0046,-0.0019,0.0097
1.12005600280014,-0.0366,0.21489999999999998,-9.7901,-0.0045000000000000005,-0.0019,0.009899999999999999
1.1300565028251413,-0.0452,0.21289999999999998,-9.787999999999998,-0.0046,-0.0021,0.0097
1.1400570028501424,-0.0478,0.1925,-9.7795,-0.0048000000000000004,-0.0023,0.0097
1.1500575028751439,-0.0356,0.1877,-9.7774,-0.0045000000000000005,-0.0021,0.0097
1.160058002900145,-0.0364,0.20079999999999998,-9.7791,-0.0039,-0.002,0.0098
1.1700585029251462,-0.0393,0.1954,-9.7898,-0.0043,-0.002,0.0097
1.1800590029501474,-0.0395,0.1868,-9.796000000000001,-0.0034999999999999996,-0.0021999999999999997,0.0097
1.1900595029751488,-0.04,0.2183,-9.8042,-0.0036,-0.0021999999999999997,0.0098
1.20006000300015,-0.044,0.2109,-9.801400000000001,-0.0036999999999999997,-0.0023,0.0097
1.2100605030251512,-0.04889999999999999,0.1908,-9.7748,-0.0036,-0.0026,0.009600000000000001
1.2200610030501524,-0.0386,0.184,-9.777099999999999,-0.0034999999999999996,-0.0023,0.0097
1.2300615030751538,-0.034499999999999996,0.19599999999999998,-9.7851,-0.0026,-0.002,0.0097
1.240062003100155,-0.036000000000000004,0.18409999999999999,-9.7986,-0.0021999999999999997,-0.002,0.009600000000000001
1.2500625031251562,-0.036699999999999997,0.18209999999999998,-9.7956,-0.0013,-0.0021999999999999997,0.009600000000000001
1.2600630031501574,-0.0341,0.20040000000000002,-9.8157,-0.0009,-0.0021999999999999997,0.0097
1.2700635031751588,-0.052,0.1954,-9.7923,-0.00019999999999999998,-0.0023,0.0095
1.28006400320016,-0.0407,0.189,-9.799299999999999,-9.999999999999999e-05,-0.0025,0.0095
1.2900645032251612,-0.0476,0.17880000000000001,-9.7903,0.00030000000000000003,-0.0024000000000000002,0.0095
1.3000650032501626,-0.0346,0.1999,-9.7752,0.0007999999999999999,-0.0024000000000000002,0.0095
1.3100655032751638,-0.029300000000000003,0.1951,-9.79,0.0007,-0.0024000000000000002,0.009399999999999999
1.320066003300165,-0.0414,0.18539999999999998,-9.7844,0.0012000000000000001,-0.0025,0.0095
1.3300665033251662,-0.0263,0.20609999999999998,-9.811499999999999,0.0009,-0.0023,0.009600000000000001
1.3400670033501676,-0.0477,0.2113,-9.8004,0.0013,-0.0025,0.009399999999999999
1.3500675033751688,-0.0423,0.19629999999999997,-9.7966,0.0010999999999999998,-0.0026999999999999997,0.009399999999999999
1.36006800340017,-0.039599999999999996,0.1749,-9.7839,0.002,-0.0026,0.009399999999999999
1.3700685034251712,-0.0355,0.1872,-9.7813,0.0025,-0.0023,0.0092
1.3800690034501726,-0.0257,0.18539999999999998,-9.8063,0.0023,-0.0019,0.0092
1.3900695034751738,-0.0449,0.1935,-9.8055,0.0024000000000000002,-0.0021,0.0091
1.400070003500175,-0.033100000000000004,0.20040000000000002,-9.809800000000001,0.0015,-0.0021999999999999997,0.0091
1.4100705035251762,-0.0498,0.2102,-9.808300000000001,0.0012000000000000001,-0.0024000000000000002,0.0092
1.4200710035501776,-0.0484,0.2002,-9.7869,0.0009,-0.0026999999999999997,0.0091
1.4300715035751788,-0.0383,0.1946,-9.7839,0.0014,-0.0028,0.0093
1.44007200360018,-0.039,0.1928,-9.7889,0.0017,-0.0026,0.0092
1.4500725036251814,-0.029799999999999997,0.19519999999999998,-9.7914,0.0021999999999999997,-0.0025,0.0092
1.4600730036501826,-0.037599999999999995,0.19519999999999998,-9.7937,0.0019,-0.0026,0.0089
1.4700735036751837,-0.0304,0.1817,-9.8149,0.0017,-0.0025,0.0089
1.480074003700185,-0.0414,0.2065,-9.8079,0.0021999999999999997,-0.0025,0.009000000000000001
1.4900745037251864,-0.039,0.21289999999999998,-9.802299999999999,0.0021,-0.0026,0.008799999999999999
1.5000750037501875,-0.0467,0.18860000000000002,-9.7857,0.0025,-0.0026,0.008799999999999999
1.5100755037751887,-0.034999999999999996,0.1954,-9.786200000000001,0.0031999999999999997,-0.0023,0.008799999999999999
1.52007600380019,-0.0353,0.2002,-9.7872,0.0033,-0.0021,0.0089
1.5300765038251913,-0.0391,0.1975,-9.804699999999999,0.0033,-0.0023,0.008799999999999999
1.5400770038501925,-0.0417,0.1987,-9.811599999999999,0.0033,-0.0025,0.008799999999999999
1.5500775038751937,-0.033,0.2143,-9.818499999999998,0.003,-0.0026,0.0089
1.560078003900195,-0.0448,0.2144,-9.811499999999999,0.0029,-0.0028,0.0087
1.5700785039251963,-0.0475,0.2053,-9.7878,0.0026,-0.003,0.008799999999999999
1.5800790039501975,-0.0351,0.1955,-9.7834,0.0028,-0.0028,0.008799999999999999
1.5900795039751987,-0.0305,0.20699999999999996,-9.798,0.0031,-0.0024000000000000002,0.0087
1.6000800040002,-0.0365,0.2013,-9.8025,0.003,-0.0023,0.0086
1.6100805040252013,-0.0361,0.20669999999999997,-9.8097,0.003,-0.0025,0.0086
1.6200810040502025,-0.028699999999999996,0.22729999999999997,-9.8215,0.0023,-0.0025,0.0086
1.6300815040752037,-0.050100000000000006,0.21710000000000002,-9.8035,0.0023,-0.0026,0.0085
1.640082004100205,-0.0428,0.2224,-9.790899999999999,0.0014,-0.0028,0.0086
1.6500825041252063,-0.0319,0.1984,-9.7902,0.001,-0.0025,0.0085
1.6600830041502075,-0.0344,0.20140000000000002,-9.7886,0.0013,-0.0023,0.0086
1.6700835041752087,-0.0338,0.2089,-9.8,0.0012000000000000001,-0.0023,0.0085
1.68008400420021,-0.0369,0.1983,-9.8012,0.0012000000000000001,-0.0024000000000000002,0.0084
1.6900845042252113,-0.0325,0.2173,-9.819600000000001,0.0009,-0.0026,0.0086
1.7000850042502125,-0.0497,0.2187,-9.8063,0.001,-0.0026999999999999997,0.0083
1.7100855042752137,-0.0422,0.2184,-9.8013,0.00030000000000000003,-0.0029,0.0085
1.720086004300215,-0.033100000000000004,0.20209999999999997,-9.7946,0.00019999999999999998,-0.0028,0.0084
1.7300865043252163,-0.0356,0.20439999999999997,-9.7854,0.00039999999999999996,-0.0026,0.0082
1.7400870043502175,-0.027399999999999997,0.192,-9.801400000000001,0.0005,-0.0023,0.0082
1.7500875043752186,-0.036699999999999997,0.1988,-9.8085,0.0014,-0.0024000000000000002,0.0084
1.76008800440022,-0.0351,0.2191,-9.8119,0.0017,-0.0025,0.0082
1.7700885044252213,-0.039599999999999996,0.218,-9.8035,0.0019,-0.0026999999999999997,0.0083
1.7800890044502224,-0.0392,0.2133,-9.8075,0.0024000000000000002,-0.0026,0.0082
1.7900895044752239,-0.0377,0.2049,-9.8001,0.0025,-0.0026,0.0082
1.800090004500225,-0.0401,0.20709999999999998,-9.7899,0.0026,-0.0026,0.0083
1.8100905045252262,-0.0278,0.2099,-9.7997,0.0031999999999999997,-0.0025,0.0083
1.8200910045502274,-0.027399999999999997,0.20679999999999998,-9.8085,0.0033,-0.0024000000000000002,0.0081
1.8300915045752288,-0.0416,0.2095,-9.804599999999999,0.0033,-0.0026,0.0082
1.84009200460023,-0.0392,0.2265,-9.8054,0.0031,-0.0028,0.0081
1.8500925046252312,-0.0358,0.2215,-9.8049,0.0029,-0.0028,0.0081
1.8600930046502324,-0.0397,0.20479999999999998,-9.794799999999999,0.003,-0.0026999999999999997,0.0081
1.8700935046752338,-0.0349,0.212,-9.8021,0.0031999999999999997,-0.0026,0.0082
1.880094004700235,-0.0334,0.22190000000000001,-9.7986,0.0031999999999999997,-0.0024000000000000002,0.0081
1.8900945047252362,-0.0214,0.217,-9.818399999999999,0.0029,-0.0024000000000000002,0.008
1.9000950047502374,-0.045,0.2176,-9.803799999999999,0.003,-0.0025,0.0081
1.9100955047752388,-0.026,0.23470000000000002,-9.8132,0.0024000000000000002,-0.0025,0.0082
1.92009600480024,-0.048299999999999996,0.22399999999999998,-9.8012,0.0025,-0.0026,0.008
1.9300965048252412,-0.0365,0.21719999999999998,-9.8018,0.0021,-0.0026,0.0081
1.9400970048502426,-0.033100000000000004,0.209,-9.8034,0.0024000000000000002,-0.0025,0.0081
1.9500975048752438,-0.0332,0.22039999999999998,-9.8002,0.0026,-0.0025,0.008
1.960098004900245,-0.0292,0.21619999999999998,-9.8004,0.0025,-0.0026,0.007899999999999999
1.9700985049252462,-0.036699999999999997,0.22139999999999999,-9.804,0.0025,-0.0025,0.008
1.9800990049502476,-0.0308,0.2284,-9.8176,0.002,-0.0025,0.0081
1.9900995049752488,-0.0368,0.23900000000000002,-9.8111,0.0023,-0.0026,0.008
2.00010000500025,-0.0369,0.2307,-9.8074,0.0015,-0.0026,0.008
2.0101005050252514,-0.0339,0.209,-9.8009,0.002,-0.0025,0.008
2.0201010050502526,-0.0315,0.22019999999999998,-9.8002,0.0021999999999999997,-0.0023,0.008
2.0301015050752538,-0.024399999999999998,0.2166,-9.814,0.0024000000000000002,-0.0021,0.008
2.040102005100255,-0.0413,0.22590000000000002,-9.8024,0.0026,-0.0023,0.008
2.050102505125256,-0.0254,0.23129999999999998,-9.8137,0.0021999999999999997,-0.0023,0.008
2.0601030051502573,-0.0338,0.23640000000000003,-9.8148,0.0021,-0.0023,0.008
2.0701035051752585,-0.0445,0.2258,-9.8035,0.0017,-0.0025,0.008
2.08010400520026,-0.039,0.2212,-9.798,0.0015999999999999999,-0.0026,0.0081
2.0901045052252614,-0.0254,0.22469999999999998,-9.802,0.0014,-0.0024000000000000002,0.007899999999999999
2.1001050052502626,-0.033,0.2133,-9.7974,0.0021,-0.0024000000000000002,0.008
2.1101055052752637,-0.0228,0.22369999999999998,-9.8085,0.0021,-0.0024000000000000002,0.008
2.120106005300265,-0.0333,0.21889999999999998,-9.8183,0.0023,-0.0023,0.007899999999999999
2.130106505325266,-0.027399999999999997,0.2454,-9.814499999999999,0.0028,-0.0021999999999999997,0.0081
2.1401070053502673,-0.0386,0.2355,-9.803099999999999,0.0025,-0.0023,0.007899999999999999
2.150107505375269,-0.0385,0.21,-9.803099999999999,0.0026999999999999997,-0.0023,0.008
2.16010800540027,-0.0264,0.22629999999999997,-9.799199999999999,0.0029,-0.002,0.008
2.1701085054252713,-0.0275,0.22989999999999997,-9.798399999999999,0.0034999999999999996,-0.0019,0.008
2.1801090054502725,-0.029999999999999995,0.2203,-9.8082,0.0031999999999999997,-0.0021,0.008
2.1901095054752737,-0.0319,0.21320000000000003,-9.8122,0.0036999999999999997,-0.0021999999999999997,0.007899999999999999
2.200110005500275,-0.0294,0.2461,-9.8126,0.0036,-0.0021999999999999997,0.0081
2.210110505525276,-0.0308,0.23470000000000002,-9.8176,0.0034999999999999996,-0.0021999999999999997,0.0078
2.2201110055502773,-0.0413,0.2203,-9.802,0.0034,-0.0024000000000000002,0.008
2.230111505575279,-0.028999999999999998,0.2206,-9.7931,0.0034999999999999996,-0.0023,0.008
2.24011200560028,-0.0218,0.23909999999999998,-9.797699999999999,0.0038,-0.0021,0.008
2.2501125056252813,-0.0232,0.22529999999999997,-9.8055,0.0033,-0.002,0.007899999999999999
2.2601130056502825,-0.029799999999999997,0.22490000000000002,-9.8157,0.0033,-0.0019,0.0081
2.2701135056752837,-0.030600000000000002,0.2549,-9.8154,0.0029,-0.0019,0.0082
2.280114005700285,-0.0284,0.2452,-9.8127,0.0028,-0.002,0.007899999999999999
2.290114505725286,-0.0387,0.2329,-9.8107,0.0021999999999999997,-0.0021,0.0081
2.3001150057502877,-0.026099999999999998,0.2251,-9.7988,0.0023,-0.0018,0.008
2.310115505775289,-0.0241,0.23839999999999997,-9.8085,0.0021999999999999997,-0.0015999999999999999,0.0081
2.32011600580029,-0.029999999999999995,0.2319,-9.804699999999999,0.0017,-0.0017,0.008
2.3301165058252913,-0.0262,0.2382,-9.819700000000001,0.0018,-0.0017,0.0081
2.3401170058502925,-0.0335,0.2586,-9.8135,0.0015,-0.0018,0.0082
2.3501175058752937,-0.0349,0.24949999999999997,-9.8078,0.001,-0.002,0.0081
2.360118005900295,-0.0351,0.23909999999999998,-9.8094,0.0007,-0.0021,0.0082
2.370118505925296,-0.0301,0.22260000000000002,-9.7956,0.0007,-0.0019,0.0081
2.3801190059502977,-0.0179,0.2312,-9.8011,0.001,-0.0017,0.0082
2.390119505975299,-0.0247,0.2375,-9.8055,0.0010999999999999998,-0.0015,0.0082
2.4001200060003,-0.0289,0.2311,-9.812,0.0013,-0.0014,0.0082
2.4101205060253013,-0.0249,0.25439999999999996,-9.8122,0.0007,-0.0015,0.0084
2.4201210060503024,-0.032299999999999995,0.2487,-9.8119,0.0005,-0.0015,0.0082
2.4301215060753036,-0.0349,0.23869999999999997,-9.8078,9.999999999999999e-05,-0.0015,0.0083
2.440122006100305,-0.0328,0.22690000000000002,-9.7914,0.00019999999999999998,-0.0015,0.0083
2.4501225061253065,-0.0196,0.2255,-9.7914,0.0007,-0.0014,0.0083
2.4601230061503077,-0.0218,0.23199999999999998,-9.8071,0.0009,-0.0012000000000000001,0.0084
2.470123506175309,-0.030899999999999997,0.2301,-9.8104,0.0012000000000000001,-0.0013,0.0083
2.48012400620031,-0.0241,0.2419,-9.8217,0.0009,-0.0015,0.0084
2.4901245062253112,-0.0305,0.23909999999999998,-9.8123,0.0014,-0.0015,0.0083
2.5001250062503124,-0.039,0.23770000000000002,-9.8004,0.0010999999999999998,-0.0015999999999999999,0.0084
2.5101255062753136,-0.0286,0.22599999999999998,-9.7944,0.0014,-0.0015,0.0084
2.520126006300315,-0.0222,0.2264,-9.79,0.0018,-0.0013,0.0083
2.5301265063253164,-0.02,0.22369999999999998,-9.803199999999999,0.0017,-0.0010999999999999998,0.0084
2.5401270063503176,-0.026099999999999998,0.23509999999999998,-9.8052,0.0023,-0.0010999999999999998,0.0084
2.550127506375319,-0.0215,0.25,-9.816999999999998,0.0018,-0.0010999999999999998,0.0085
2.56012800640032,-0.0327,0.2419,-9.8168,0.0018,-0.0010999999999999998,0.0084
2.570128506425321,-0.037399999999999996,0.2349,-9.801400000000001,0.0015,-0.0012000000000000001,0.0085
2.5801290064503224,-0.0234,0.22460000000000002,-9.7964,0.0015,-0.0012000000000000001,0.0084
2.5901295064753236,-0.0268,0.2252,-9.801,0.002,-0.001,0.0083
2.600130006500325,-0.021,0.23029999999999998,-9.796000000000001,0.0025,-0.0007999999999999999,0.0085
2.6101305065253264,-0.0242,0.22799999999999998,-9.808300000000001,0.0026,-0.0009,0.0084
2.6201310065503276,-0.0224,0.2395,-9.825299999999999,0.0026999999999999997,-0.0009,0.0085
2.630131506575329,-0.034,0.251,-9.8138,0.0029,-0.0010999999999999998,0.0083
2.64013200660033,-0.031799999999999995,0.2443,-9.8027,0.0024000000000000002,-0.0012000000000000001,0.0085
2.650132506625331,-0.0235,0.2234,-9.7928,0.0026,-0.0010999999999999998,0.0084
2.6601330066503324,-0.0241,0.2275,-9.7882,0.003,-0.0007999999999999999,0.0085
2.6701335066753336,-0.0134,0.23479999999999998,-9.8121,0.0026999999999999997,-0.0005,0.0085
2.680134006700335,-0.0351,0.2339,-9.7981,0.0031,-0.0007,0.0084
2.6901345067253364,-0.0089,0.2423,-9.8187,0.0026999999999999997,-0.0007,0.0085
2.7001350067503376,-0.037899999999999996,0.2515,-9.8081,0.0031,-0.0007,0.0085
2.7101355067753388,-0.0338,0.24979999999999997,-9.7981,0.0023,-0.0007999999999999999,0.0085
2.72013600680034,-0.024399999999999998,0.2389,-9.787700000000001,0.0019,-0.0007999999999999999,0.0086
2.730136506825341,-0.0181,0.2319,-9.7953,0.0019,-0.00039999999999999996,0.0085
2.7401370068503423,-0.0169,0.2329,-9.8028,0.0017,-9.999999999999999e-05,0.0087
2.750137506875344,-0.0288,0.2429,-9.8081,0.0021,-0.00030000000000000003,0.0086
2.760138006900345,-0.0152,0.25630000000000003,-9.8204,0.0015999999999999999,-0.00039999999999999996,0.0086
2.7701385069253464,-0.0363,0.24459999999999998,-9.8059,0.0015,-0.0006000000000000001,0.0085
2.7801390069503475,-0.0304,0.23770000000000002,-9.794500000000001,0.0014,-0.0007,0.0086
2.7901395069753487,-0.0172,0.22899999999999998,-9.794,0.0015,-0.0005,0.0086
2.80014000700035,-0.0229,0.22560000000000002,-9.7955,0.0019,-0.00019999999999999998,0.0086
2.810140507025351,-0.0179,0.23909999999999998,-9.7972,0.0023,-0.00019999999999999998,0.0087
2.8201410070503523,-0.0242,0.2435,-9.8034,0.0023,-0.00019999999999999998,0.0087
2.830141507075354,-0.0189,0.2656,-9.8112,0.0018,-0.00030000000000000003,0.0089
2.840142007100355,-0.0312,0.2568,-9.8024,0.0013,-0.00030000000000000003,0.0087
2.8501425071253563,-0.0222,0.2405,-9.7933,0.001,-0.00039999999999999996,0.008799999999999999
2.8601430071503575,-0.0207,0.2238,-9.7913,0.0009,-9.999999999999999e-05,0.0087
2.8701435071753587,-0.0155,0.22659999999999997,-9.795399999999999,0.0015999999999999999,0.00019999999999999998,0.008799999999999999
2.88014400720036,-0.018799999999999997,0.23900000000000002,-9.8016,0.0019,0.00019999999999999998,0.008799999999999999
2.890144507225361,-0.0305,0.25370000000000004,-9.8064,0.002,9.999999999999999e-05,0.0089
2.9001450072503627,-0.019,0.25730000000000003,-9.8057,0.0014,-0.0,0.008799999999999999
2.910145507275364,-0.0229,0.2511,-9.8055,0.0012000000000000001,-9.999999999999999e-05,0.008799999999999999
2.920146007300365,-0.032,0.23670000000000002,-9.7854,0.0009,-0.00019999999999999998,0.008799999999999999
2.9301465073253663,-0.0178,0.2297,-9.7896,0.0010999999999999998,9.999999999999999e-05,0.009000000000000001
2.9401470073503675,-0.0212,0.2386,-9.794899999999998,0.0012000000000000001,0.00030000000000000003,0.0089
2.9501475073753687,-0.013999999999999999,0.2385,-9.802299999999999,0.0010999999999999998,0.00030000000000000003,0.0089
2.96014800740037,-0.027399999999999997,0.23700000000000002,-9.7957,0.0014,9.999999999999999e-05,0.009000000000000001
2.970148507425371,-0.0203,0.2507,-9.796299999999999,0.0015,9.999999999999999e-05,0.009000000000000001
2.9801490074503727,-0.0278,0.2444,-9.792399999999999,0.0013,9.999999999999999e-05,0.009000000000000001
2.990149507475374,-0.0246,0.22769999999999999,-9.7898,0.0014,0.0,0.009000000000000001
3.000150007500375,-0.019,0.22889999999999996,-9.7921,0.0017,0.00030000000000000003,0.009000000000000001
3.0101505075253763,-0.0206,0.2376,-9.7831,0.002,0.00039999999999999996,0.009000000000000001
3.0201510075503775,-0.012,0.2392,-9.7943,0.0018,0.00039999999999999996,0.0089
3.0301515075753787,-0.024499999999999997,0.2342,-9.8021,0.0019,0.0005,0.0089
3.04015200760038,-0.0264,0.24659999999999999,-9.796100000000001,0.002,0.0005,0.0091
3.0501525076253815,-0.015799999999999998,0.2521,-9.8004,0.0015999999999999999,0.00030000000000000003,0.0089
3.0601530076503827,-0.0353,0.22390000000000002,-9.784099999999999,0.0018,0.00019999999999999998,0.0089
3.070153507675384,-0.0136,0.2311,-9.7897,0.0021999999999999997,0.00039999999999999996,0.009000000000000001
3.080154007700385,-0.0184,0.2373,-9.7874,0.0024000000000000002,0.0005,0.009000000000000001
3.0901545077253862,-0.0165,0.2343,-9.7875,0.0025,0.00039999999999999996,0.009000000000000001
3.1001550077503874,-0.0155,0.2502,-9.8018,0.0025,0.0005,0.0091
3.1101555077753886,-0.032,0.25339999999999996,-9.803799999999999,0.0026,0.0006000000000000001,0.009000000000000001
3.12015600780039,-0.024,0.24550000000000002,-9.8035,0.0021999999999999997,0.0005,0.0091
3.1301565078253915,-0.021599999999999998,0.2275,-9.7901,0.0025,0.00030000000000000003,0.0089
3.1401570078503926,-0.009600000000000001,0.2327,-9.7901,0.0028,0.0005,0.0089
3.150157507875394,-0.0221,0.23540000000000003,-9.7792,0.0034,0.0009,0.009000000000000001
3.160158007900395,-0.0184,0.2372,-9.7819,0.0036,0.001,0.009000000000000001
3.170158507925396,-0.0146,0.2562,-9.8099,0.0034999999999999996,0.0009,0.0093
3.1801590079503974,-0.0319,0.2533,-9.8063,0.0034999999999999996,0.0009,0.009000000000000001
3.1901595079753986,-0.026099999999999998,0.2504,-9.794899999999998,0.0031999999999999997,0.0005,0.0092
3.2001600080004,-0.0218,0.22690000000000002,-9.780800000000001,0.0031999999999999997,0.00039999999999999996,0.009000000000000001
3.2101605080254014,-0.0121,0.23709999999999998,-9.785499999999999,0.0036999999999999997,0.0007,0.0092
3.2201610080504026,-0.0208,0.23349999999999999,-9.7765,0.0039,0.0010999999999999998,0.0091
3.230161508075404,-0.0213,0.2379,-9.785,0.0045000000000000005,0.0007999999999999999,0.0092
3.240162008100405,-0.012,0.2684,-9.799199999999999,0.0041,0.0009,0.0093
3.250162508125406,-0.0289,0.2522,-9.7987,0.0041,0.0009,0.0091
3.2601630081504074,-0.0252,0.24789999999999998,-9.7869,0.0041,0.0006000000000000001,0.0093
3.2701635081754086,-0.0213,0.2334,-9.7782,0.004,0.0006000000000000001,0.0091
3.28016400820041,-0.014999999999999998,0.23500000000000001,-9.7758,0.004399999999999999,0.0009,0.0092
3.2901645082254114,-0.0106,0.2278,-9.780800000000001,0.0050999999999999995,0.0013,0.0092
3.3001650082504126,-0.0254,0.24789999999999998,-9.797699999999999,0.0053,0.0012000000000000001,0.0093
3.310165508275414,-0.0207,0.25639999999999996,-9.7907,0.0052,0.0010999999999999998,0.0092
3.320166008300415,-0.021599999999999998,0.2614,-9.799,0.0050999999999999995,0.001,0.0092
3.330166508325416,-0.0315,0.2425,-9.7848,0.0049,0.0009,0.0092
3.3401670083504174,-0.013999999999999999,0.23609999999999998,-9.7833,0.0049,0.0009,0.0092
3.3501675083754185,-0.011,0.23779999999999998,-9.7861,0.005,0.0012000000000000001,0.0092
3.36016800840042,-0.0248,0.2379,-9.778599999999999,0.0053,0.0012000000000000001,0.0093
3.3701685084254214,-0.0057,0.2595,-9.796299999999999,0.0053,0.0012000000000000001,0.0093
3.3801690084504226,-0.036699999999999997,0.25699999999999995,-9.792399999999999,0.005399999999999999,0.0010999999999999998,0.0092
3.3901695084754238,-0.0215,0.25839999999999996,-9.794,0.0048000000000000004,0.001,0.0093
3.400170008500425,-0.0264,0.2443,-9.7799,0.004399999999999999,0.0007999999999999999,0.0092
3.410170508525426,-0.0174,0.2382,-9.7821,0.004699999999999999,0.001,0.0091
3.4201710085504273,-0.0060999999999999995,0.2392,-9.7715,0.0050999999999999995,0.0013,0.0093
3.430171508575429,-0.020900000000000002,0.2473,-9.7835,0.0055,0.0014,0.0093
3.44017200860043,-0.0161,0.26280000000000003,-9.7896,0.005399999999999999,0.0014,0.0093
3.4501725086254313,-0.0275,0.2633,-9.7965,0.0057,0.0013,0.0093
3.4601730086504325,-0.025799999999999997,0.2545,-9.784099999999999,0.0055,0.001,0.0093
3.4701735086754337,-0.0226,0.22820000000000001,-9.7748,0.0058,0.001,0.0092
3.480174008700435,-0.0136,0.2308,-9.767199999999999,0.0068,0.0012000000000000001,0.0092
3.490174508725436,-0.0077,0.254,-9.782399999999999,0.006999999999999999,0.0015,0.0093
3.5001750087504373,-0.0315,0.24620000000000003,-9.783,0.0076,0.0015999999999999999,0.0093
3.510175508775439,-0.0152,0.26389999999999997,-9.790600000000001,0.007899999999999999,0.0012000000000000001,0.0095
3.52017600880044,-0.02,0.2631,-9.7953,0.008,0.0010999999999999998,0.0092
3.5301765088254413,-0.031100000000000003,0.25379999999999997,-9.7853,0.007899999999999999,0.0010999999999999998,0.009399999999999999
3.5401770088504425,-0.017599999999999998,0.2442,-9.772599999999999,0.0082,0.0010999999999999998,0.009399999999999999
3.5501775088754437,-0.0063,0.2451,-9.7815,0.008799999999999999,0.0013,0.0093
3.560178008900445,-0.020900000000000002,0.2505,-9.7722,0.0089,0.0015,0.009399999999999999
3.570178508925446,-0.018699999999999998,0.26809999999999995,-9.7888,0.0089,0.0015,0.009399999999999999
3.5801790089504477,-0.0222,0.2688,-9.7927,0.009000000000000001,0.0014,0.0093
3.590179508975449,-0.027399999999999997,0.2647,-9.7875,0.0089,0.0012000000000000001,0.009399999999999999
3.60018000900045,-0.0228,0.2559,-9.7791,0.009000000000000001,0.0012000000000000001,0.0093
3.6101805090254513,-0.010799999999999999,0.2474,-9.7773,0.009000000000000001,0.0012000000000000001,0.0092
3.6201810090504525,-0.0173,0.2568,-9.7707,0.0092,0.0014,0.009399999999999999
3.6301815090754537,-0.02,0.26289999999999997,-9.7768,0.009000000000000001,0.0015,0.009399999999999999
3.640182009100455,-0.009000000000000001,0.2788,-9.7878,0.0087,0.0014,0.009399999999999999
3.650182509125456,-0.0348,0.2783,-9.7805,0.0083,0.0013,0.0092
3.6601830091504577,-0.0191,0.2744,-9.7833,0.007499999999999999,0.001,0.009399999999999999
3.670183509175459,-0.026099999999999998,0.2582,-9.769400000000001,0.006999999999999999,0.0010999999999999998,0.0092
3.68018400920046,-0.0132,0.2542,-9.766399999999999,0.0069,0.0012000000000000001,0.0093
3.6901845092254613,-0.007899999999999999,0.2641,-9.7719,0.006999999999999999,0.0015,0.009399999999999999
3.7001850092504625,-0.0265,0.27149999999999996,-9.7817,0.006999999999999999,0.0015999999999999999,0.009399999999999999
3.7101855092754636,-0.0222,0.2869,-9.7916,0.0065,0.0015,0.009399999999999999
3.720186009300465,-0.0259,0.2828,-9.7875,0.0063,0.0013,0.0093
3.7301865093254665,-0.0214,0.2754,-9.7774,0.006,0.001,0.0093
3.7401870093504677,-0.0212,0.2632,-9.7704,0.006,0.0012000000000000001,0.0093
3.750187509375469,-0.0242,0.26489999999999997,-9.7699,0.0060999999999999995,0.0014,0.0093
3.76018800940047,-0.0093,0.2698,-9.776,0.0058,0.0015,0.009399999999999999
3.7701885094254712,-0.0215,0.2814,-9.788499999999999,0.0057,0.0014,0.0093
3.7801890094504724,-0.0252,0.2882,-9.785499999999999,0.005399999999999999,0.0012000000000000001,0.0093
3.7901895094754736,-0.0242,0.282,-9.7874,0.0048000000000000004,0.0010999999999999998,0.0093
3.800190009500475,-0.029300000000000003,0.26589999999999997,-9.770299999999999,0.004699999999999999,0.001,0.0093
3.8101905095254764,-0.012199999999999999,0.2677,-9.7728,0.0042,0.0010999999999999998,0.0093
3.8201910095504776,-0.013,0.2716,-9.770900000000001,0.0045000000000000005,0.0013,0.0093
3.830191509575479,-0.0184,0.27959999999999996,-9.7746,0.0038,0.0014,0.0093
3.84019200960048,-0.0126,0.2856,-9.7853,0.0033,0.0014,0.009399999999999999
3.850192509625481,-0.0422,0.2958,-9.779,0.0028,0.0012000000000000001,0.0093
3.8601930096504824,-0.0173,0.2837,-9.775599999999999,0.0018,0.001,0.0093
3.8701935096754836,-0.0203,0.2603,-9.771,0.0018,0.001,0.0092
3.8801940097004852,-0.0147,0.25799999999999995,-9.7696,0.0018,0.0012000000000000001,0.0092
3.8901945097254864,-0.009899999999999999,0.2717,-9.7683,0.0023,0.0014,0.0092
3.9001950097504876,-0.0232,0.27690000000000003,-9.775699999999999,0.0024000000000000002,0.0014,0.0092
3.910195509775489,-0.020399999999999998,0.28769999999999996,-9.7857,0.0021999999999999997,0.0014,0.009399999999999999
3.92019600980049,-0.0321,0.29610000000000003,-9.7853,0.0019,0.001,0.0092
3.930196509825491,-0.0241,0.2813,-9.7735,0.0007999999999999999,0.0007,0.0092
3.9401970098504924,-0.0222,0.2581,-9.766399999999999,0.0009,0.0007999999999999999,0.0091
3.9501975098754936,-0.0178,0.2653,-9.766,0.001,0.0010999999999999998,0.0092
3.960198009900495,-0.0066,0.27149999999999996,-9.7754,0.0009,0.0012000000000000001,0.0091
3.9701985099254964,-0.0223,0.2737,-9.7823,0.0009,0.0010999999999999998,0.0091
3.9801990099504976,-0.0222,0.29910000000000003,-9.7846,0.0009,0.0010999999999999998,0.0093
3.9901995099754988,-0.032299999999999995,0.2974,-9.7822,9.999999999999999e-05,0.0009,0.009000000000000001
4.0002000100005,-0.0222,0.27049999999999996,-9.7745,-0.00039999999999999996,0.0006000000000000001,0.0092
4.010200510025501,-0.0146,0.26849999999999996,-9.7647,-0.00039999999999999996,0.0009,0.0091
4.020201010050503,-0.0101,0.2729,-9.774099999999999,-0.0005,0.0010999999999999998,0.0091
4.0302015100755035,-0.0225,0.26289999999999997,-9.7662,-0.0006000000000000001,0.001,0.0091
4.040202010100505,-0.0195,0.2813,-9.7831,-0.00039999999999999996,0.001,0.0091
4.050202510125506,-0.0286,0.291,-9.782599999999999,-0.0006000000000000001,0.0009,0.009000000000000001
4.0602030101505076,-0.025500000000000002,0.2805,-9.780800000000001,-0.0012000000000000001,0.0006000000000000001,0.009000000000000001
4.070203510175509,-0.0278,0.2618,-9.7659,-0.0013,0.00039999999999999996,0.009000000000000001
4.08020401020051,-0.0101,0.2614,-9.769400000000001,-0.001,0.0006000000000000001,0.009000000000000001
4.090204510225512,-0.008799999999999999,0.2704,-9.7783,-0.0007,0.001,0.0091
4.100205010250512,-0.025,0.2729,-9.7665,-0.0005,0.0007999999999999999,0.009000000000000001
4.110205510275514,-0.0065,0.2831,-9.7836,-0.0007999999999999999,0.0009,0.0091
4.120206010300515,-0.0365,0.2834,-9.7915,-0.0006000000000000001,0.0009,0.009000000000000001
4.130206510325516,-0.029599999999999998,0.2841,-9.778,-0.0012000000000000001,0.0006000000000000001,0.0091
4.140207010350517,-0.0223,0.25939999999999996,-9.769799999999998,-0.0010999999999999998,0.00039999999999999996,0.0089
4.150207510375519,-0.017,0.262,-9.7677,-0.0005,0.0006000000000000001,0.009000000000000001
4.16020801040052,-0.0068,0.26749999999999996,-9.7746,-0.00039999999999999996,0.0010999999999999998,0.0089
4.170208510425521,-0.0224,0.2688,-9.7886,-0.00039999999999999996,0.0009,0.009000000000000001
4.180209010450523,-0.018799999999999997,0.2941,-9.789399999999999,-0.00039999999999999996,0.0007,0.009000000000000001
4.1902095104755235,-0.030899999999999997,0.2827,-9.7847,-0.0009,0.00039999999999999996,0.0087
4.200210010500525,-0.0234,0.2737,-9.7736,-0.0012000000000000001,0.00019999999999999998,0.009000000000000001
4.210210510525526,-0.0207,0.2645,-9.7711,-0.0015,0.00039999999999999996,0.008799999999999999
4.2202110105505275,-0.0111,0.2706,-9.7598,-0.0014,0.0005,0.0089
4.230211510575529,-0.0146,0.265,-9.7748,-0.0019,0.0006000000000000001,0.008799999999999999
4.24021201060053,-0.0268,0.2601,-9.7788,-0.0018,0.0006000000000000001,0.0089
4.2502125106255315,-0.0155,0.28800000000000003,-9.782,-0.0015999999999999999,0.0005,0.0089
4.260213010650532,-0.024399999999999998,0.2771,-9.7821,-0.0019,0.00039999999999999996,0.0087
4.270213510675534,-0.0329,0.2512,-9.7668,-0.0017,9.999999999999999e-05,0.0087
4.280214010700535,-0.0104,0.2523,-9.7647,-0.0012000000000000001,0.00030000000000000003,0.0087
4.290214510725536,-0.0125,0.2597,-9.7682,9.999999999999999e-05,0.0006000000000000001,0.0086
4.300215010750538,-0.024499999999999997,0.2613,-9.7707,0.00030000000000000003,0.0006000000000000001,0.0087
4.310215510775539,-0.018699999999999998,0.2772,-9.7881,0.00019999999999999998,0.0005,0.0086
4.32021601080054,-0.0241,0.2943,-9.786200000000001,-0.00030000000000000003,0.00039999999999999996,0.0087
4.330216510825541,-0.0294,0.2711,-9.7785,-0.00039999999999999996,-0.0,0.0086
4.340217010850543,-0.023299999999999998,0.2617,-9.7701,-0.0007,-0.00030000000000000003,0.0085
4.350217510875543,-0.014999999999999998,0.2487,-9.7595,-0.0006000000000000001,-0.0,0.0084
4.360218010900545,-0.004399999999999999,0.2557,-9.7817,9.999999999999999e-05,0.00030000000000000003,0.0086
4.370218510925547,-0.027099999999999996,0.2666,-9.7699,0.00030000000000000003,0.00019999999999999998,0.0083
4.380219010950547,-0.0114,0.2758,-9.791,-0.00019999999999999998,9.999999999999999e-05,0.0086
4.390219510975549,-0.026699999999999998,0.2879,-9.7911,9.999999999999999e-05,-0.0,0.0083
4.40022001100055,-0.0302,0.2779,-9.775699999999999,-0.0007,-0.00030000000000000003,0.0084
4.4102205110255515,-0.0189,0.25699999999999995,-9.7638,-0.0010999999999999998,-0.00039999999999999996,0.0083
4.420221011050552,-0.0115,0.2551,-9.7708,-0.0007,-9.999999999999999e-05,0.0082
4.430221511075554,-0.0095,0.2612,-9.7735,-0.0006000000000000001,0.00039999999999999996,0.0084
4.440222011100555,-0.0275,0.2623,-9.7758,-0.0,9.999999999999999e-05,0.0082
4.450222511125556,-0.012199999999999999,0.2828,-9.7936,-9.999999999999999e-05,-0.0,0.0084
4.460223011150558,-0.0314,0.2846,-9.7959,-0.0,-0.00019999999999999998,0.0081
4.470223511175559,-0.0239,0.2708,-9.7764,-0.0006000000000000001,-0.0006000000000000001,0.0082
4.48022401120056,-0.0167,0.2562,-9.7704,-0.0007999999999999999,-0.0005,0.0082
4.490224511225561,-0.0143,0.2637,-9.7699,-0.00039999999999999996,-0.00039999999999999996,0.0081
4.500225011250563,-0.010799999999999999,0.26649999999999996,-9.777199999999999,-0.0007,-9.999999999999999e-05,0.0081
4.510225511275563,-0.0247,0.26,-9.7868,-0.00030000000000000003,-9.999999999999999e-05,0.008
4.520226011300565,-0.0117,0.2909,-9.7919,-0.0007,-0.00039999999999999996,0.0082
4.530226511325567,-0.0276,0.2788,-9.7898,-0.0010999999999999998,-0.0005,0.0078
4.540227011350567,-0.0292,0.2717,-9.7781,-0.0015,-0.0007,0.0082
4.550227511375569,-0.0131,0.24910000000000002,-9.772599999999999,-0.0015,-0.0005,0.007899999999999999
4.56022801140057,-0.011,0.264,-9.7738,-0.0012000000000000001,-0.00039999999999999996,0.0081
4.570228511425571,-0.018699999999999998,0.2676,-9.774099999999999,-0.0014,-0.00030000000000000003,0.008
4.580229011450572,-0.0173,0.2732,-9.7866,-0.0012000000000000001,-0.00039999999999999996,0.008
4.590229511475574,-0.018000000000000002,0.29109999999999997,-9.7886,-0.0013,-0.00039999999999999996,0.0081
4.600230011500575,-0.0284,0.2773,-9.7927,-0.0019,-0.0006000000000000001,0.0078
4.610230511525576,-0.0247,0.26480000000000004,-9.7795,-0.002,-0.001,0.007899999999999999
4.620231011550578,-0.014899999999999998,0.2598,-9.7752,-0.0018,-0.0007999999999999999,0.0078
4.6302315115755786,-0.0116,0.2732,-9.7732,-0.0017,-0.0005,0.007899999999999999
4.64023201160058,-0.0172,0.2657,-9.7864,-0.0023,-0.0005,0.0077
4.650232511625581,-0.0186,0.2719,-9.7835,-0.0021999999999999997,-0.0006000000000000001,0.0078
4.660233011650583,-0.0174,0.2924,-9.7931,-0.0026,-0.0007999999999999999,0.0078
4.670233511675584,-0.0241,0.2823,-9.779599999999999,-0.0031999999999999997,-0.001,0.0078
4.680234011700585,-0.0225,0.263,-9.7803,-0.0034,-0.0010999999999999998,0.0077
4.690234511725587,-0.0154,0.2601,-9.773,-0.0036,-0.0009,0.007899999999999999
4.700235011750587,-0.0073,0.26380000000000003,-9.7799,-0.0034,-0.0007999999999999999,0.0078
4.710235511775589,-0.018699999999999998,0.27390000000000003,-9.7803,-0.0038,-0.0007999999999999999,0.0078
4.72023601180059,-0.0063,0.2686,-9.7897,-0.0039,-0.0007999999999999999,0.0076
4.730236511825591,-0.0234,0.2753,-9.792399999999999,-0.004,-0.0009,0.0077
4.740237011850592,-0.0242,0.2792,-9.7792,-0.0046,-0.0010999999999999998,0.0077
4.750237511875594,-0.0218,0.25439999999999996,-9.7812,-0.0049,-0.0012000000000000001,0.007499999999999999
4.760238011900595,-0.013300000000000001,0.25579999999999997,-9.7817,-0.004699999999999999,-0.0010999999999999998,0.0077
4.770238511925596,-0.0155,0.2597,-9.772599999999999,-0.0041,-0.0010999999999999998,0.007499999999999999
4.780239011950598,-0.0161,0.2709,-9.7804,-0.0043,-0.0013,0.0076
4.7902395119755985,-0.013300000000000001,0.2598,-9.789100000000001,-0.004399999999999999,-0.0013,0.007499999999999999
4.8002400120006,-0.0155,0.27659999999999996,-9.789100000000001,-0.0042,-0.0013,0.0077
4.810240512025601,-0.0178,0.2744,-9.7922,-0.0045000000000000005,-0.0015,0.007499999999999999
4.8202410120506025,-0.030299999999999997,0.254,-9.7802,-0.0046,-0.0015,0.0076
4.830241512075604,-0.010799999999999999,0.25339999999999996,-9.781099999999999,-0.004399999999999999,-0.0013,0.007499999999999999
4.840242012100605,-0.0086,0.2671,-9.7803,-0.0039,-0.0010999999999999998,0.0076
4.8502425121256065,-0.0142,0.27009999999999995,-9.785,-0.0046,-0.0013,0.007499999999999999
4.860243012150607,-0.0166,0.2595,-9.7915,-0.0045000000000000005,-0.0014,0.0073999999999999995
4.870243512175609,-0.019200000000000002,0.2771,-9.7919,-0.0046,-0.0014,0.007499999999999999
4.88024401220061,-0.0184,0.2733,-9.792,-0.0053,-0.0015999999999999999,0.0073999999999999995
4.890244512225611,-0.0254,0.2507,-9.7851,-0.0056,-0.0019,0.0073999999999999995
4.900245012250613,-0.014799999999999999,0.2552,-9.7867,-0.0055,-0.0018,0.007499999999999999
4.910245512275614,-0.01,0.2775,-9.7792,-0.0050999999999999995,-0.0015999999999999999,0.0076
4.920246012300615,-0.0071,0.26689999999999997,-9.789299999999999,-0.0056,-0.0017,0.0073999999999999995
4.930246512325616,-0.0138,0.2586,-9.8013,-0.0058,-0.0015999999999999999,0.007499999999999999
4.940247012350618,-0.0206,0.2742,-9.8011,-0.0058,-0.0015999999999999999,0.007499999999999999
4.950247512375618,-0.018799999999999997,0.2732,-9.796299999999999,-0.0065,-0.0018,0.007499999999999999
4.96024801240062,-0.025599999999999998,0.2428,-9.783,-0.0067,-0.002,0.0073999999999999995
4.970248512425622,-0.007899999999999999,0.24979999999999997,-9.78,-0.0063999999999999994,-0.0019,0.0073999999999999995
4.9802490124506225,0.0036,0.2627,-9.792399999999999,-0.0062,-0.0017,0.0073
4.990249512475624,-0.0231,0.2553,-9.786499999999998,-0.0065,-0.0017,0.0073
5.000250012500625,-0.0203,0.2535,-9.7886,-0.0062,-0.0018,0.0073999999999999995
5.0102505125256265,-0.014499999999999999,0.2748,-9.7991,-0.0065,-0.0019,0.007499999999999999
5.020251012550627,-0.015799999999999998,0.25699999999999995,-9.8003,-0.0071,-0.002,0.0073999999999999995
5.030251512575629,-0.0191,0.2451,-9.791,-0.006999999999999999,-0.0023,0.0073999999999999995
5.04025201260063,-0.0125,0.2487,-9.7804,-0.0069,-0.0021,0.0073999999999999995
5.050252512625631,-0.0097,0.25079999999999997,-9.789100000000001,-0.0068,-0.0019,0.0073999999999999995
5.060253012650633,-0.014999999999999998,0.2451,-9.787999999999998,-0.0067,-0.002,0.0073
5.070253512675634,-0.0092,0.25699999999999995,-9.8036,-0.0062,-0.0021,0.0073999999999999995
5.080254012700635,-0.0223,0.26649999999999996,-9.8012,-0.0063999999999999994,-0.0021999999999999997,0.0073
5.090254512725636,-0.0117,0.2532,-9.7947,-0.0065,-0.0024000000000000002,0.0073
5.100255012750638,-0.014999999999999998,0.24239999999999998,-9.7905,-0.0063,-0.0024000000000000002,0.0073
5.110255512775638,-0.017599999999999998,0.2435,-9.7898,-0.0060999999999999995,-0.0021999999999999997,0.0073
5.12025601280064,-0.0095,0.24949999999999997,-9.7876,-0.0059,-0.0021,0.0073999999999999995
5.130256512825642,-0.007499999999999999,0.24659999999999999,-9.7995,-0.006,-0.0023,0.0072
5.140257012850642,-0.0111,0.2542,-9.7958,-0.0059,-0.0023,0.0073
5.150257512875644,-0.0178,0.2622,-9.81,-0.0063,-0.0023,0.0073999999999999995
5.160258012900645,-0.0171,0.2514,-9.7964,-0.0063999999999999994,-0.0026,0.0073
5.170258512925646,-0.0167,0.23609999999999998,-9.7867,-0.0063999999999999994,-0.0028,0.0073
5.180259012950647,-0.0127,0.2284,-9.7832,-0.006,-0.0026999999999999997,0.0073
5.190259512975649,-0.0087,0.23440000000000003,-9.7905,-0.005399999999999999,-0.0024000000000000002,0.0072
5.20026001300065,-0.006999999999999999,0.2321,-9.7996,-0.0053,-0.0023,0.0071
5.210260513025651,-0.0135,0.2473,-9.8027,-0.0050999999999999995,-0.0026,0.0073
5.220261013050653,-0.0055,0.2645,-9.811,-0.005399999999999999,-0.0025,0.0072
5.230261513075654,-0.025500000000000002,0.2562,-9.807,-0.0056,-0.0026,0.0071
5.240262013100655,-0.0154,0.2425,-9.789200000000001,-0.006,-0.0029,0.0072
5.250262513125656,-0.0077,0.2301,-9.7937,-0.0059,-0.0026999999999999997,0.0072
5.260263013150658,-0.0138,0.2336,-9.7952,-0.0055,-0.0025,0.0072
5.270263513175658,-0.0134,0.243,-9.7927,-0.0052,-0.0026999999999999997,0.0072
5.28026401320066,-0.0021,0.23609999999999998,-9.796299999999999,-0.0050999999999999995,-0.0028,0.0071
5.290264513225662,-0.0059,0.246,-9.8217,-0.0052,-0.0028,0.0073
5.300265013250662,-0.0272,0.2541,-9.8021,-0.0050999999999999995,-0.0028,0.0071
5.310265513275664,-0.0085,0.2434,-9.799199999999999,-0.0057,-0.0031,0.0072
5.320266013300665,-0.013300000000000001,0.2216,-9.800699999999999,-0.0050999999999999995,-0.003,0.006999999999999999
5.330266513325666,-0.0136,0.23709999999999998,-9.789,-0.005,-0.0029,0.0071
5.340267013350667,-0.00030000000000000003,0.2372,-9.7991,-0.0050999999999999995,-0.0028,0.0072
5.350267513375669,-0.0116,0.22959999999999997,-9.7983,-0.0045000000000000005,-0.003,0.006999999999999999
5.36026801340067,-0.0050999999999999995,0.24069999999999997,-9.810599999999999,-0.0048000000000000004,-0.0029,0.0072
5.370268513425671,-0.0195,0.247,-9.8072,-0.0048000000000000004,-0.0029,0.0071
5.380269013450673,-0.0138,0.23540000000000003,-9.810599999999999,-0.0052,-0.0031,0.006999999999999999
5.3902695134756735,-0.0174,0.2206,-9.7985,-0.0053,-0.0033,0.006999999999999999
5.400270013500675,-0.0084,0.22929999999999998,-9.7933,-0.0052,-0.0033,0.0069
5.410270513525676,0.0017,0.23199999999999998,-9.8037,-0.0052,-0.003,0.0069
5.4202710135506775,-0.0131,0.2346,-9.7988,-0.0053,-0.003,0.0069
5.430271513575679,-0.0077,0.2341,-9.8103,-0.0059,-0.0031999999999999997,0.0069
5.44027201360068,-0.0092,0.2505,-9.8124,-0.006,-0.0031999999999999997,0.006999999999999999
5.4502725136256815,-0.017,0.2427,-9.8085,-0.0063999999999999994,-0.0033,0.0068
5.460273013650682,-0.010199999999999999,0.2268,-9.8035,-0.0069,-0.0034,0.0069
5.470273513675684,-0.0097,0.2311,-9.8002,-0.006999999999999999,-0.0033,0.0068
5.480274013700685,-0.0031999999999999997,0.2349,-9.8042,-0.0071,-0.0031,0.0069
5.490274513725686,-0.0104,0.2307,-9.807,-0.007499999999999999,-0.0031999999999999997,0.0068
5.500275013750688,-0.0055,0.22959999999999997,-9.8163,-0.0078,-0.0033,0.0068
5.510275513775689,-0.00039999999999999996,0.2503,-9.8221,-0.0081,-0.0031999999999999997,0.0069
5.52027601380069,-0.0163,0.2322,-9.810599999999999,-0.008,-0.0034,0.0067
5.530276513825691,-0.0172,0.22190000000000001,-9.8041,-0.0082,-0.0036,0.0068
5.540277013850693,-0.0049,0.2174,-9.8022,-0.007899999999999999,-0.0033,0.0068
5.5502775138756935,0.0007999999999999999,0.2321,-9.8117,-0.007499999999999999,-0.0031,0.0068
5.560278013900695,-0.0173,0.2255,-9.806199999999999,-0.0076,-0.0034,0.0067
5.570278513925696,-0.006999999999999999,0.21649999999999997,-9.801,-0.0076,-0.0036,0.0067
5.5802790139506975,0.0021999999999999997,0.23099999999999998,-9.8285,-0.0076,-0.0033,0.0068
5.590279513975699,-0.015899999999999997,0.2396,-9.819899999999999,-0.0076,-0.0033,0.0067
5.6002800140007,-0.015799999999999998,0.22190000000000001,-9.8117,-0.0083,-0.0036,0.0067
5.6102805140257015,-0.008799999999999999,0.1998,-9.7989,-0.008,-0.0036999999999999997,0.0066
5.620281014050702,0.003,0.21619999999999998,-9.8096,-0.0077,-0.0033,0.0066
5.630281514075704,-0.0101,0.2164,-9.7988,-0.007499999999999999,-0.0033,0.0066
5.640282014100705,0.0010999999999999998,0.21849999999999997,-9.8162,-0.0076,-0.0034,0.0066
5.650282514125706,-0.0104,0.2207,-9.819999999999999,-0.0078,-0.0033,0.0066
5.660283014150708,-0.007899999999999999,0.23969999999999997,-9.8221,-0.0077,-0.0034,0.0067
5.670283514175709,-0.0117,0.2218,-9.8148,-0.0081,-0.0036,0.0065
5.68028401420071,-0.0077,0.20600000000000002,-9.805,-0.007499999999999999,-0.0036999999999999997,0.0066
5.690284514225711,-0.0045000000000000005,0.2092,-9.8027,-0.0071,-0.0034999999999999996,0.0066
5.700285014250713,-0.0005,0.215,-9.812999999999999,-0.0063,-0.0033,0.0067
5.710285514275713,-0.0138,0.2141,-9.8155,-0.0059,-0.0034,0.0066
5.720286014300715,0.0024000000000000002,0.21580000000000002,-9.8227,-0.0053,-0.0034999999999999996,0.0066
5.730286514325717,-0.0029,0.22899999999999998,-9.8305,-0.0050999999999999995,-0.0034999999999999996,0.0067
5.740287014350717,-0.0087,0.219,-9.8216,-0.005,-0.0036,0.0066
5.750287514375719,-0.005,0.21150000000000002,-9.803099999999999,-0.004699999999999999,-0.0038,0.0066
5.76028801440072,-0.0023,0.2173,-9.8074,-0.004399999999999999,-0.0036,0.0067
5.770288514425721,-0.0056,0.2147,-9.807,-0.0043,-0.0034,0.0066
5.780289014450722,0.0024000000000000002,0.20600000000000002,-9.8096,-0.0046,-0.0034999999999999996,0.0066
5.790289514475724,-0.01,0.20140000000000002,-9.8103,-0.0043,-0.0036999999999999997,0.0066
5.8002900145007255,0.0116,0.2241,-9.834900000000001,-0.004399999999999999,-0.0034999999999999996,0.0067
5.810290514525726,-0.0136,0.2241,-9.8177,-0.0042,-0.0034999999999999996,0.0066
5.820291014550728,-0.013300000000000001,0.2109,-9.8122,-0.0045000000000000005,-0.0038,0.0067
5.830291514575729,-0.0049,0.2072,-9.8073,-0.0043,-0.0036999999999999997,0.0067
5.84029201460073,0.0015999999999999999,0.2221,-9.811,-0.0041,-0.0034999999999999996,0.0066
5.850292514625731,-0.0033,0.20679999999999998,-9.8079,-0.0042,-0.0034999999999999996,0.0065
5.860293014650733,0.0012000000000000001,0.2033,-9.8236,-0.0041,-0.0036,0.0067
5.870293514675733,9.999999999999999e-05,0.21389999999999998,-9.829,-0.0042,-0.0034,0.0065
5.880294014700735,-0.0021999999999999997,0.2287,-9.8315,-0.0043,-0.0034999999999999996,0.0067
5.890294514725737,-0.010799999999999999,0.2133,-9.8215,-0.004699999999999999,-0.0038,0.0063999999999999994
5.900295014750737,-0.0066,0.1981,-9.811499999999999,-0.004399999999999999,-0.0038,0.0066
5.910295514775739,-0.0028,0.2083,-9.8066,-0.0045000000000000005,-0.0036,0.0063999999999999994
5.92029601480074,-9.999999999999999e-05,0.2124,-9.8143,-0.0043,-0.0036,0.0065
5.930296514825741,0.0066,0.2043,-9.8307,-0.0045000000000000005,-0.0036,0.0065
5.940297014850742,-0.00039999999999999996,0.20070000000000002,-9.8248,-0.0042,-0.0036999999999999997,0.0065
5.950297514875744,0.0052,0.2274,-9.834299999999999,-0.0045000000000000005,-0.0038,0.0066
5.960298014900745,-0.01,0.2097,-9.822899999999999,-0.004,-0.0036,0.0063999999999999994
5.970298514925746,-0.0042,0.209,-9.8177,-0.0039,-0.0036,0.0066
5.980299014950748,-0.0010999999999999998,0.20839999999999997,-9.8155,-0.0036999999999999997,-0.0034,0.0065
5.9902995149757485,-0.0024000000000000002,0.2124,-9.8147,-0.0036,-0.0034,0.0065
6.00030001500075,0.004699999999999999,0.1999,-9.818,-0.0034999999999999996,-0.0034,0.0065
6.010300515025751,-0.004399999999999999,0.2016,-9.819799999999999,-0.0031,-0.0034,0.0065
6.0203010150507525,0.010199999999999999,0.1974,-9.838,-0.0031999999999999997,-0.0034,0.0063999999999999994
6.030301515075754,-0.0073,0.2112,-9.8216,-0.0025,-0.0036,0.0066
6.040302015100755,-0.0033,0.20470000000000002,-9.8178,-0.0021,-0.0036999999999999997,0.0063
6.050302515125757,0.0028,0.1889,-9.8372,-0.0026999999999999997,-0.0034,0.0063
6.060303015150757,-0.0144,0.1887,-9.809199999999999,-0.0026999999999999997,-0.0034,0.0063
6.070303515175759,0.008799999999999999,0.1939,-9.824,-0.0019,-0.0034999999999999996,0.0063999999999999994
6.08030401520076,0.0025,0.20249999999999999,-9.8223,-0.0013,-0.0036,0.0065
6.090304515225761,0.0007999999999999999,0.2103,-9.824,-0.0006000000000000001,-0.0034,0.0063999999999999994
6.100305015250763,-0.0013,0.2298,-9.8176,-0.0009,-0.0034,0.0066
6.110305515275764,0.0005,0.21819999999999998,-9.8234,-0.0012000000000000001,-0.0034,0.0063999999999999994
6.120306015300765,-0.0091,0.1948,-9.8159,-0.0014,-0.0034,0.0063
6.130306515325766,0.0095,0.1858,-9.826,-0.0009,-0.0031,0.0063999999999999994
6.140307015350768,-0.0007999999999999999,0.1872,-9.8307,9.999999999999999e-05,-0.0029,0.0063
6.1503075153757685,0.0069,0.2029,-9.8341,0.0010999999999999998,-0.0031,0.0063
6.16030801540077,-0.0036,0.2096,-9.8206,0.0014,-0.0033,0.0062
6.170308515425771,0.0010999999999999998,0.21949999999999997,-9.8257,0.0009,-0.0033,0.0063999999999999994
6.1803090154507725,-0.003,0.2352,-9.8291,0.0009,-0.0031999999999999997,0.0063999999999999994
6.190309515475774,-0.0012000000000000001,0.21919999999999998,-9.8236,-9.999999999999999e-05,-0.0033,0.0063
6.200310015500775,-0.0073999999999999995,0.19469999999999998,-9.8202,-0.00039999999999999996,-0.0034,0.0065
6.2103105155257765,0.0007,0.214,-9.8209,-0.0005,-0.0031999999999999997,0.0066
6.220311015550777,0.0154,0.2241,-9.8276,-0.0006000000000000001,-0.0031,0.0065
6.230311515575779,0.0083,0.2032,-9.8379,-0.0010999999999999998,-0.003,0.0063999999999999994
6.24031201560078,-0.00019999999999999998,0.20709999999999998,-9.826,-0.0007999999999999999,-0.0029,0.0065
6.250312515625781,0.0072,0.2225,-9.8379,-0.001,-0.0026999999999999997,0.0063999999999999994
6.260313015650783,-0.0053,0.2121,-9.8332,-0.0012000000000000001,-0.0026999999999999997,0.0063
6.270313515675784,-0.008,0.2022,-9.8203,-0.0010999999999999998,-0.0029,0.0063999999999999994
6.280314015700785,0.0010999999999999998,0.20739999999999997,-9.8204,-0.0013,-0.0028,0.0063999999999999994
6.290314515725786,0.0038,0.2123,-9.8177,-0.0010999999999999998,-0.0028,0.0063999999999999994
6.300315015750788,0.0036,0.21,-9.821,-0.0014,-0.0029,0.0063999999999999994
6.310315515775788,0.0026999999999999997,0.20170000000000002,-9.819999999999999,-0.0013,-0.003,0.0063999999999999994
6.32031601580079,0.0081,0.20739999999999997,-9.8378,-0.0013,-0.0028,0.0065
6.330316515825792,-0.0034999999999999996,0.2086,-9.8322,-0.0007,-0.0026999999999999997,0.0065
6.340317015850792,-0.0043,0.2174,-9.8252,-0.001,-0.0029,0.0066
6.350317515875794,0.0023,0.1936,-9.8156,-0.0009,-0.0029,0.0063999999999999994
6.360318015900795,0.0043,0.2046,-9.818999999999999,-0.0005,-0.0026,0.0063999999999999994
6.3703185159257965,0.0036,0.20140000000000002,-9.818499999999998,-0.00039999999999999996,-0.0023,0.0063
6.380319015950797,0.0085,0.20839999999999997,-9.8353,-0.0012000000000000001,-0.0021999999999999997,0.0063
6.390319515975799,0.0036,0.1968,-9.8389,-0.0017,-0.0021,0.0060999999999999995
6.4003200160008,-0.0049,0.21080000000000002,-9.8376,-0.0012000000000000001,-0.0023,0.0063999999999999994
6.410320516025801,0.0038,0.21610000000000001,-9.8316,-0.001,-0.0024000000000000002,0.0063
6.420321016050803,-0.0083,0.201,-9.8176,-0.00019999999999999998,-0.0025,0.0063999999999999994
6.430321516075804,0.0036999999999999997,0.21180000000000002,-9.8179,-0.0,-0.0023,0.0063999999999999994
6.440322016100805,0.006,0.2103,-9.8227,-0.0,-0.0023,0.0063999999999999994
6.450322516125806,0.0125,0.2052,-9.8384,-0.00019999999999999998,-0.0021999999999999997,0.0063
6.460323016150808,-0.0049,0.1971,-9.8317,-9.999999999999999e-05,-0.0021999999999999997,0.0063
6.470323516175808,0.0109,0.20539999999999997,-9.8413,-9.999999999999999e-05,-0.0021999999999999997,0.0063
6.48032401620081,-0.0045000000000000005,0.2153,-9.8386,0.0007999999999999999,-0.0021,0.0063
6.490324516225812,-0.005,0.21810000000000002,-9.818399999999999,0.0010999999999999998,-0.0021,0.0063
6.500325016250812,0.0091,0.20669999999999997,-9.8216,0.0010999999999999998,-0.0019,0.0063
6.510325516275814,-0.004399999999999999,0.20209999999999997,-9.8148,0.0012000000000000001,-0.0018,0.0062
6.520326016300815,0.0147,0.2086,-9.826699999999999,0.0007999999999999999,-0.0015999999999999999,0.0062
6.530326516325816,-0.0017,0.1964,-9.831900000000001,0.0009,-0.0015,0.0063
6.540327016350817,0.015899999999999997,0.20609999999999998,-9.8486,0.0010999999999999998,-0.0014,0.0063
6.550327516375819,-0.0036,0.2268,-9.8437,0.0010999999999999998,-0.0014,0.0063999999999999994
6.56032801640082,-0.0087,0.2066,-9.824,0.0009,-0.0015999999999999999,0.0062
6.570328516425821,0.0015999999999999999,0.18519999999999998,-9.8256,0.0017,-0.0015,0.0063999999999999994
6.580329016450823,0.0019,0.1991,-9.8237,0.0026,-0.0012000000000000001,0.0063999999999999994
6.5903295164758235,0.0111,0.2143,-9.8208,0.0031999999999999997,-0.0013,0.0063
6.600330016500825,0.0057,0.20479999999999998,-9.8303,0.0033,-0.0013,0.0063
6.610330516525826,0.0069,0.2157,-9.8294,0.0036,-0.0013,0.0063999999999999994
6.620331016550828,0.008,0.23800000000000002,-9.8303,0.0034,-0.0013,0.0063999999999999994
6.630331516575829,-0.0112,0.2183,-9.8212,0.0031,-0.0014,0.0062
6.64033201660083,0.0015,0.1964,-9.814499999999999,0.0036,-0.0010999999999999998,0.0063999999999999994
6.650332516625832,0.0091,0.20339999999999997,-9.8233,0.0043,-0.0007,0.0063999999999999994
6.660333016650832,0.0053,0.22560000000000002,-9.8227,0.0048000000000000004,-0.0006000000000000001,0.0065
6.670333516675834,0.013999999999999999,0.21389999999999998,-9.8276,0.004399999999999999,-0.0006000000000000001,0.0063
6.680334016700835,0.00019999999999999998,0.2105,-9.8362,0.0045000000000000005,-0.0006000000000000001,0.0063999999999999994
6.690334516725836,0.0015,0.2382,-9.8261,0.0038,-0.0005,0.0066
6.700335016750837,-0.0024000000000000002,0.23800000000000002,-9.8281,0.0036999999999999997,-0.0005,0.0065
6.710335516775839,-0.0031999999999999997,0.2157,-9.8204,0.0033,-0.0006000000000000001,0.0065
6.72033601680084,-0.0015,0.1895,-9.8103,0.0036,-0.0006000000000000001,0.0063999999999999994
6.730336516825841,0.0034999999999999996,0.20270000000000002,-9.8176,0.0042,-0.0005,0.0065
6.740337016850843,0.014899999999999998,0.2127,-9.8249,0.0049,-0.00039999999999999996,0.0063999999999999994
6.7503375168758435,-0.003,0.2123,-9.8299,0.0050999999999999995,-0.00039999999999999996,0.0063999999999999994
6.760338016900845,0.006,0.2154,-9.8306,0.0050999999999999995,-0.00039999999999999996,0.0065
6.770338516925846,0.001,0.2334,-9.822799999999999,0.0055,-0.00030000000000000003,0.0065
6.7803390169508475,0.0,0.2324,-9.8162,0.005,-0.00019999999999999998,0.0065
6.790339516975849,0.001,0.2079,-9.808300000000001,0.0050999999999999995,-0.0,0.0066
6.80034001700085,0.0081,0.21059999999999998,-9.8203,0.005399999999999999,0.00030000000000000003,0.0065
6.8103405170258515,0.0059,0.2264,-9.825399999999998,0.0057,0.00039999999999999996,0.0065
6.820341017050852,-0.0059,0.2224,-9.8202,0.0057,0.00019999999999999998,0.0065
6.830341517075854,0.0067,0.22390000000000002,-9.8271,0.0057,9.999999999999999e-05,0.0066
6.840342017100855,0.0059,0.2334,-9.8295,0.0057,0.00030000000000000003,0.0065
6.850342517125856,-0.0065,0.22820000000000001,-9.8208,0.0056,0.00039999999999999996,0.0065
6.860343017150858,-0.0007,0.21710000000000002,-9.8099,0.0057,0.00019999999999999998,0.0065
6.870343517175859,0.0043,0.21949999999999997,-9.8121,0.0060999999999999995,0.0005,0.0065
6.88034401720086,0.00019999999999999998,0.22829999999999998,-9.8153,0.0062,0.0007,0.0065
6.890344517225861,0.0068,0.22019999999999998,-9.826699999999999,0.006,0.0006000000000000001,0.0063999999999999994
6.900345017250863,0.0053,0.22820000000000001,-9.818399999999999,0.006,0.0006000000000000001,0.0065
6.910345517275863,0.009600000000000001,0.244,-9.831900000000001,0.0059,0.0007999999999999999,0.0066
6.920346017300865,-0.013300000000000001,0.2339,-9.8143,0.0057,0.0009,0.0065
6.930346517325867,-0.0010999999999999998,0.2198,-9.8071,0.0057,0.0007999999999999999,0.0066
6.9403470173508675,0.009899999999999999,0.22390000000000002,-9.8148,0.0062,0.0010999999999999998,0.0067
6.950347517375869,-0.0086,0.23379999999999998,-9.8109,0.0063999999999999994,0.0013,0.0066
6.96034801740087,0.0069,0.2208,-9.8159,0.0059,0.0013,0.0066
6.9703485174258715,0.0026,0.22769999999999999,-9.8209,0.0065,0.0010999999999999998,0.0065
6.980349017450872,0.0065,0.24489999999999998,-9.8224,0.0060999999999999995,0.0012000000000000001,0.0066
6.990349517475874,-0.0147,0.2403,-9.814,0.0063999999999999994,0.0012000000000000001,0.0065
7.000350017500875,-0.0077,0.22989999999999997,-9.8056,0.0060999999999999995,0.0013,0.0066
7.010350517525876,-0.00019999999999999998,0.2176,-9.8049,0.0065,0.0014,0.0066
7.020351017550878,0.0039,0.2363,-9.8048,0.006999999999999999,0.0015,0.0067
7.030351517575879,0.0007,0.2322,-9.8056,0.0071,0.0015,0.0065
7.04035201760088,-0.0015999999999999999,0.22290000000000001,-9.8079,0.007499999999999999,0.0015,0.0066
7.050352517625881,0.009000000000000001,0.23879999999999998,-9.8161,0.0073999999999999995,0.0015999999999999999,0.0067
7.060353017650883,-0.0127,0.24680000000000002,-9.8168,0.0078,0.0017,0.0066
7.070353517675883,-0.006,0.2305,-9.8067,0.0072,0.0015999999999999999,0.0066
7.080354017700885,0.0010999999999999998,0.2186,-9.8009,0.007899999999999999,0.0018,0.0067
7.090354517725887,0.0012000000000000001,0.2343,-9.7983,0.0085,0.002,0.0065
7.100355017750887,0.004399999999999999,0.2311,-9.805,0.0086,0.0021999999999999997,0.0066
7.110355517775889,-0.0131,0.2359,-9.803,0.008799999999999999,0.0021,0.0067
7.12035601780089,0.0063999999999999994,0.2608,-9.819700000000001,0.0083,0.0021,0.0067
7.130356517825891,-0.0127,0.2569,-9.8144,0.0083,0.002,0.0066
7.140357017850892,-0.0092,0.2433,-9.8025,0.0077,0.0018,0.0066
7.150357517875894,-0.0031999999999999997,0.2362,-9.7933,0.0081,0.0019,0.0067
7.160358017900895,-0.0042,0.23199999999999998,-9.7955,0.0081,0.0023,0.0065
7.170358517925896,0.0036,0.2349,-9.7926,0.0085,0.0023,0.0067
7.180359017950898,0.0007,0.2505,-9.8119,0.008799999999999999,0.0024000000000000002,0.0066
7.190359517975899,-0.0077,0.2577,-9.8089,0.0085,0.0024000000000000002,0.0067
7.2003600180009,-0.0121,0.2617,-9.8065,0.0085,0.0024000000000000002,0.0067
7.210360518025901,-0.0050999999999999995,0.25439999999999996,-9.7953,0.0078,0.0023,0.0067
7.220361018050903,-0.0017,0.24069999999999997,-9.7938,0.007899999999999999,0.0025,0.0067
7.230361518075904,-0.006,0.24580000000000002,-9.7867,0.0081,0.0026999999999999997,0.0066
7.240362018100905,0.0111,0.2425,-9.8033,0.0081,0.0028,0.0067
7.250362518125907,-0.012799999999999999,0.2526,-9.7968,0.0082,0.0028,0.0067
7.260363018150907,-0.0024000000000000002,0.2688,-9.810599999999999,0.007899999999999999,0.0026999999999999997,0.0067
7.270363518175909,-0.0157,0.26940000000000003,-9.8018,0.0077,0.0025,0.0067
7.28036401820091,-0.0091,0.2523,-9.8027,0.0071,0.0026,0.0067
7.290364518225911,-0.0097,0.2474,-9.7872,0.0073,0.0026,0.0068
7.300365018250912,-0.0029,0.2577,-9.789299999999999,0.0073,0.0026999999999999997,0.0067
7.310365518275914,0.0046,0.2515,-9.790799999999999,0.007499999999999999,0.0029,0.0068
7.320366018300915,-0.010199999999999999,0.2531,-9.789499999999999,0.0078,0.0029,0.0068
7.330366518325916,0.00039999999999999996,0.2703,-9.7996,0.007499999999999999,0.003,0.0068
7.340367018350918,-0.0147,0.2663,-9.8026,0.0073999999999999995,0.003,0.0067
7.3503675183759185,-0.015899999999999997,0.2568,-9.7941,0.0073,0.003,0.0068
7.36036801840092,-0.0101,0.2535,-9.7874,0.007499999999999999,0.0031,0.0068
7.370368518425921,-0.0018,0.25179999999999997,-9.7843,0.0076,0.0031,0.0067
7.3803690184509225,0.0021999999999999997,0.2514,-9.7955,0.0077,0.0034,0.0068
7.390369518475924,-0.017499999999999998,0.2583,-9.7898,0.008,0.0034,0.0068
7.400370018500925,0.0015,0.2758,-9.7988,0.0078,0.0031999999999999997,0.0069
7.4103705185259265,-0.012199999999999999,0.2678,-9.8015,0.0078,0.0034,0.0067
7.420371018550927,-0.0202,0.2666,-9.8016,0.0076,0.0031999999999999997,0.0069
7.430371518575929,-0.0104,0.2575,-9.7816,0.007499999999999999,0.0031,0.0067
7.44037201860093,-0.0015999999999999999,0.26189999999999997,-9.7853,0.0076,0.0031999999999999997,0.0068
7.450372518625931,0.00019999999999999998,0.2572,-9.792399999999999,0.007899999999999999,0.0036999999999999997,0.0068
7.460373018650933,-0.019,0.2657,-9.7849,0.0083,0.0036999999999999997,0.0069
7.470373518675934,0.0069,0.2855,-9.8006,0.0078,0.0036,0.0069
7.480374018700935,-0.0215,0.2732,-9.7971,0.0076,0.0036999999999999997,0.0068
7.490374518725936,-0.0123,0.2702,-9.793,0.0077,0.0036999999999999997,0.0069
7.500375018750938,-0.008799999999999999,0.2664,-9.7784,0.007499999999999999,0.0036,0.0068
7.5103755187759385,-0.0028,0.26489999999999997,-9.7773,0.007899999999999999,0.0038,0.0069
7.52037601880094,-0.002,0.2618,-9.786499999999998,0.007899999999999999,0.0041,0.0069
7.530376518825942,-0.0142,0.2711,-9.7904,0.0084,0.0042,0.006999999999999999
7.5403770188509425,-0.0156,0.2912,-9.7991,0.0077,0.0039,0.006999999999999999
7.550377518875944,-0.0115,0.2818,-9.789399999999999,0.0076,0.0039,0.0069
7.560378018900945,-0.0174,0.27999999999999997,-9.7833,0.0072,0.0036999999999999997,0.006999999999999999
7.5703785189259465,-0.0078,0.2697,-9.7705,0.0072,0.0038,0.006999999999999999
7.580379018950947,-0.0063999999999999994,0.2745,-9.7671,0.0073,0.004,0.006999999999999999
7.590379518975949,-0.0049,0.2661,-9.7828,0.0073999999999999995,0.0043,0.006999999999999999
7.60038001900095,-0.0116,0.2818,-9.7848,0.0078,0.0043,0.006999999999999999
7.610380519025951,-0.0132,0.2974,-9.790799999999999,0.0072,0.0043,0.0072
7.620381019050953,-0.019200000000000002,0.2839,-9.7915,0.0071,0.0041,0.0069
7.630381519075954,-0.0124,0.2718,-9.769400000000001,0.0067,0.004,0.0071
7.640382019100955,-0.0093,0.27399999999999997,-9.7731,0.0065,0.0043,0.0071
7.650382519125956,-0.0127,0.2808,-9.7661,0.0063999999999999994,0.004399999999999999,0.0071
7.660383019150958,-0.004399999999999999,0.2829,-9.7773,0.0058,0.0046,0.0071
7.670383519175958,-0.0143,0.282,-9.7848,0.0059,0.0045000000000000005,0.0071
7.68038401920096,-0.016,0.30379999999999996,-9.7941,0.005399999999999999,0.0045000000000000005,0.0072
7.690384519225962,-0.0211,0.2886,-9.786200000000001,0.0042,0.004399999999999999,0.006999999999999999
7.700385019250962,-0.013999999999999999,0.27499999999999997,-9.7795,0.004,0.0042,0.0071
7.710385519275964,-0.0068,0.27399999999999997,-9.7714,0.0039,0.004399999999999999,0.0071
7.720386019300965,-0.0009,0.2752,-9.7848,0.0039,0.0048000000000000004,0.0071
7.730386519325966,-0.0195,0.2857,-9.778,0.004,0.0048000000000000004,0.0071
7.740387019350967,-0.0118,0.2952,-9.786999999999999,0.0036999999999999997,0.0049,0.0071
7.750387519375969,-0.0265,0.3019,-9.782399999999999,0.0034,0.0046,0.0072
7.7603880194009704,-0.0214,0.2892,-9.7814,0.0025,0.0046,0.006999999999999999
7.770388519425971,-0.0144,0.2744,-9.777099999999999,0.0023,0.0046,0.0071
7.780389019450973,-0.0069,0.284,-9.7685,0.0024000000000000002,0.004699999999999999,0.0071
7.790389519475974,-0.014499999999999999,0.27690000000000003,-9.7668,0.0026,0.005,0.0071
7.800390019500975,-0.0138,0.2785,-9.7642,0.003,0.0048000000000000004,0.0073
7.810390519525976,-0.0089,0.2984,-9.772599999999999,0.0034,0.0049,0.0073
7.820391019550978,-0.027999999999999997,0.3054,-9.7735,0.0034999999999999996,0.0048000000000000004,0.0072
7.830391519575978,-0.021599999999999998,0.2994,-9.761899999999999,0.0031,0.0045000000000000005,0.0073
7.84039201960098,-0.0103,0.2779,-9.7626,0.0025,0.004699999999999999,0.0071
7.850392519625982,-0.0063999999999999994,0.2803,-9.7706,0.0017,0.005,0.0071
7.860393019650982,-0.014799999999999999,0.2702,-9.7806,0.0014,0.005399999999999999,0.0071
7.870393519675984,-0.016,0.2683,-9.7818,0.0021,0.0053,0.0072
7.880394019700985,-0.0168,0.28909999999999997,-9.7731,0.0028,0.0050999999999999995,0.0073
7.890394519725986,-0.0228,0.3025,-9.7669,0.0033,0.005,0.0073
7.900395019750987,-0.0304,0.2894,-9.761,0.0034,0.0048000000000000004,0.0073999999999999995
7.910395519775989,-0.0072,0.2886,-9.7613,0.0034999999999999996,0.0049,0.007499999999999999
7.92039601980099,-0.023,0.2827,-9.7583,0.0034,0.0049,0.0073999999999999995
7.930396519825991,-0.0076,0.2752,-9.7692,0.0029,0.005,0.0073999999999999995
7.940397019850993,-0.0144,0.2811,-9.7914,0.0034,0.0050999999999999995,0.0073999999999999995
7.9503975198759935,-0.0252,0.3046,-9.770299999999999,0.0038,0.0049,0.007499999999999999
7.960398019900995,-0.0182,0.2995,-9.7585,0.0036,0.004699999999999999,0.0073
7.970398519925996,-0.025099999999999997,0.28509999999999996,-9.7479,0.0034,0.004699999999999999,0.0073999999999999995
7.9803990199509975,-0.0053,0.2833,-9.7525,0.0034,0.005,0.0073999999999999995
7.990399519975999,-0.015899999999999997,0.28709999999999997,-9.765600000000001,0.0034999999999999996,0.0055,0.007499999999999999
8.000400020001,-0.0259,0.299,-9.763,0.0033,0.005399999999999999,0.0077
8.010400520026002,-0.008799999999999999,0.3141,-9.7755,0.0026999999999999997,0.0053,0.0078
8.020401020051002,-0.0387,0.3216,-9.7785,0.0017,0.005,0.0078
8.030401520076003,-0.029999999999999995,0.3101,-9.7528,0.0007,0.0046,0.0078
8.040402020101006,-0.0182,0.2906,-9.7432,0.00019999999999999998,0.0046,0.0078
8.050402520126006,-0.0123,0.2765,-9.7469,0.0005,0.0049,0.0078
8.060403020151007,-0.0228,0.2714,-9.7544,0.001,0.0052,0.007899999999999999
8.07040352017601,-0.0232,0.28909999999999997,-9.7609,0.0015,0.005,0.007899999999999999
8.08040402020101,-0.0147,0.30929999999999996,-9.770199999999999,0.0012000000000000001,0.0048000000000000004,0.0078
8.090404520226011,-0.0353,0.2967,-9.7717,0.0006000000000000001,0.004699999999999999,0.0078
8.100405020251012,-0.0356,0.3006,-9.7463,-0.00039999999999999996,0.0043,0.007899999999999999
8.110405520276014,-0.01,0.2833,-9.7397,-0.0007,0.004399999999999999,0.007899999999999999
8.120406020301015,-0.0157,0.2889,-9.7441,-0.0006000000000000001,0.0049,0.008
8.130406520326016,-0.028699999999999996,0.29269999999999996,-9.7501,-0.0010999999999999998,0.0052,0.0081
8.140407020351018,-0.020399999999999998,0.3013,-9.7654,-0.0017,0.0048000000000000004,0.0083
8.15040752037602,-0.0281,0.3176,-9.7653,-0.0019,0.0046,0.0083
8.16040802040102,-0.0343,0.2994,-9.7548,-0.0021999999999999997,0.0043,0.0083
8.17040852042602,-0.0312,0.2824,-9.7477,-0.0021999999999999997,0.0041,0.0083
8.180409020451023,-0.0125,0.2833,-9.736699999999999,-0.002,0.0042,0.0082
8.190409520476024,-0.0182,0.2793,-9.7396,-0.0015,0.0045000000000000005,0.0082
8.200410020501025,-0.0332,0.2846,-9.74,-0.001,0.004399999999999999,0.0084
8.210410520526027,-0.011,0.305,-9.7708,-0.0013,0.004399999999999999,0.0084
8.220411020551028,-0.0428,0.3004,-9.767000000000001,-0.0017,0.0041,0.0082
8.230411520576029,-0.0279,0.2815,-9.757499999999999,-0.0026,0.0038,0.0084
8.24041202060103,-0.0234,0.265,-9.746,-0.0024000000000000002,0.0038,0.0084
8.250412520626032,-0.0218,0.2764,-9.7386,-0.0021,0.004,0.0085
8.260413020651033,-0.020399999999999998,0.2748,-9.7377,-0.0018,0.0043,0.0087
8.270413520676033,-0.024499999999999997,0.29169999999999996,-9.7544,-0.0015999999999999999,0.0041,0.0087
8.280414020701034,-0.0264,0.3152,-9.7522,-0.0024000000000000002,0.0038,0.008799999999999999
8.290414520726037,-0.0346,0.3019,-9.7549,-0.0036,0.0036999999999999997,0.0086
8.300415020751037,-0.027399999999999997,0.2803,-9.7602,-0.0045000000000000005,0.0034999999999999996,0.0087
8.310415520776038,-0.0288,0.26909999999999995,-9.7456,-0.0048000000000000004,0.0033,0.0085
8.32041602080104,-0.0203,0.2663,-9.7496,-0.0048000000000000004,0.0034999999999999996,0.0085
8.330416520826041,-0.0301,0.26280000000000003,-9.7427,-0.004399999999999999,0.0036,0.0085
8.340417020851042,-0.0174,0.2767,-9.7499,-0.0038,0.0034999999999999996,0.0085
8.350417520876043,-0.039599999999999996,0.2935,-9.7469,-0.0034,0.0033,0.0086
8.360418020901045,-0.0368,0.2831,-9.7519,-0.0039,0.0031,0.0085
8.370418520926046,-0.027099999999999996,0.2674,-9.7472,-0.0041,0.003,0.0087
8.380419020951047,-0.022699999999999998,0.2667,-9.7559,-0.0039,0.0031,0.0086
8.39041952097605,-0.0308,0.2751,-9.743,-0.0036,0.0031999999999999997,0.009000000000000001
8.40042002100105,-0.0242,0.2731,-9.747,-0.0034,0.0031,0.0087
8.410420521026051,-0.014899999999999998,0.2959,-9.7624,-0.004,0.003,0.0089
8.420421021051052,-0.0487,0.28119999999999995,-9.752099999999999,-0.0046,0.0031,0.0087
8.430421521076054,-0.0289,0.2743,-9.7538,-0.0045000000000000005,0.0026999999999999997,0.008799999999999999
8.440422021101055,-0.0249,0.2709,-9.758,-0.005,0.0028,0.0086
8.450422521126056,-0.0402,0.2632,-9.7483,-0.005,0.0029,0.0086
8.460423021151058,-0.019799999999999998,0.2666,-9.754,-0.0048000000000000004,0.0026999999999999997,0.0087
8.470423521176059,-0.0344,0.27959999999999996,-9.7541,-0.005,0.0026,0.0087
8.48042402120106,-0.0265,0.2905,-9.7592,-0.0058,0.0025,0.008799999999999999
8.49042452122606,-0.0327,0.2821,-9.7651,-0.0065,0.0023,0.0087
8.500425021251063,-0.0414,0.2689,-9.7496,-0.0068,0.002,0.008799999999999999
8.510425521276064,-0.0243,0.2613,-9.745099999999999,-0.0071,0.0021,0.0089
8.520426021301065,-0.0202,0.2602,-9.7433,-0.0066,0.0023,0.0089
8.530426521326067,-0.025599999999999998,0.2603,-9.7615,-0.0071,0.0025,0.0089
8.540427021351068,-0.027399999999999997,0.2559,-9.7717,-0.0066,0.0026,0.0089
8.550427521376069,-0.0404,0.2798,-9.7556,-0.0063999999999999994,0.0023,0.0089
8.56042802140107,-0.026699999999999998,0.2762,-9.7627,-0.0073,0.002,0.008799999999999999
8.570428521426072,-0.0478,0.2512,-9.7499,-0.0076,0.0019,0.0086
8.580429021451073,-0.0197,0.25539999999999996,-9.7507,-0.0076,0.0019,0.008799999999999999
8.590429521476073,-0.0235,0.2555,-9.7547,-0.0077,0.002,0.008799999999999999
8.600430021501076,-0.0383,0.2627,-9.7514,-0.0073999999999999995,0.0018,0.0089
8.610430521526077,-0.0249,0.2687,-9.76,-0.0076,0.0018,0.0089
8.620431021551077,-0.0433,0.2699,-9.7645,-0.007499999999999999,0.0015999999999999999,0.009000000000000001
8.630431521576078,-0.0313,0.2562,-9.7593,-0.008,0.0013,0.0089
8.64043202160108,-0.032299999999999995,0.2419,-9.7555,-0.0077,0.0014,0.0089
8.650432521626081,-0.0259,0.252,-9.7408,-0.0072,0.0014,0.009000000000000001
8.660433021651082,-0.0221,0.2484,-9.7542,-0.0073999999999999995,0.0017,0.0089
8.670433521676085,-0.0364,0.2415,-9.7578,-0.0073999999999999995,0.0017,0.0089
8.680434021701085,-0.0183,0.2703,-9.7676,-0.0073,0.0015999999999999999,0.009000000000000001
8.690434521726086,-0.0328,0.2713,-9.7701,-0.0076,0.0013,0.0087
8.700435021751087,-0.043399999999999994,0.2439,-9.763399999999999,-0.0083,0.0010999999999999998,0.0089
8.71043552177609,-0.0343,0.23540000000000003,-9.7537,-0.0078,0.0012000000000000001,0.009000000000000001
8.72043602180109,-0.0239,0.2547,-9.751999999999999,-0.0077,0.0010999999999999998,0.0089
8.73043652182609,-0.0308,0.2362,-9.7598,-0.008,0.0012000000000000001,0.009000000000000001
8.740437021851093,-0.028499999999999998,0.245,-9.775599999999999,-0.0072,0.0010999999999999998,0.009000000000000001
8.750437521876094,-0.0404,0.2607,-9.770299999999999,-0.0073,0.0009,0.009000000000000001
8.760438021901095,-0.034699999999999995,0.2477,-9.7622,-0.007899999999999999,0.0005,0.009000000000000001
8.770438521926096,-0.0326,0.2307,-9.7585,-0.0073999999999999995,0.00039999999999999996,0.0089
8.780439021951098,-0.0313,0.2316,-9.747300000000001,-0.006999999999999999,0.0006000000000000001,0.009000000000000001
8.790439521976099,-0.0219,0.23969999999999997,-9.7561,-0.0068,0.0007,0.009000000000000001
8.8004400220011,-0.0377,0.2399,-9.757200000000001,-0.0069,0.0007,0.0089
8.810440522026102,-0.0262,0.24109999999999998,-9.7701,-0.0068,0.0007999999999999999,0.0089
8.820441022051103,-0.0416,0.25630000000000003,-9.7667,-0.0069,0.0006000000000000001,0.009000000000000001
8.830441522076104,-0.0326,0.23979999999999999,-9.760299999999999,-0.0073999999999999995,0.00039999999999999996,0.0089
8.840442022101104,-0.0291,0.221,-9.7669,-0.0069,0.00039999999999999996,0.0091
8.850442522126107,-0.0341,0.22699999999999998,-9.7564,-0.0063999999999999994,0.00039999999999999996,0.009000000000000001
8.860443022151108,-0.0264,0.2274,-9.7598,-0.006,0.00030000000000000003,0.009000000000000001
8.870443522176108,-0.026699999999999998,0.22799999999999998,-9.761899999999999,-0.0056,0.00030000000000000003,0.009000000000000001
8.88044402220111,-0.0286,0.22629999999999997,-9.772699999999999,-0.0053,0.00030000000000000003,0.0089
8.890444522226112,-0.0443,0.2496,-9.7734,-0.005,-9.999999999999999e-05,0.009000000000000001
8.900445022251112,-0.0368,0.2324,-9.756499999999999,-0.0055,-0.0005,0.008799999999999999
8.910445522276113,-0.0263,0.20709999999999998,-9.7602,-0.005,-0.0005,0.0089
8.920446022301116,-0.029799999999999997,0.2164,-9.7642,-0.0042,-0.00019999999999999998,0.008799999999999999
8.930446522326116,-0.030600000000000002,0.2208,-9.7581,-0.0039,-9.999999999999999e-05,0.008799999999999999
8.940447022351117,-0.0252,0.2164,-9.7609,-0.0031,-0.00039999999999999996,0.008799999999999999
8.950447522376118,-0.023,0.22799999999999998,-9.772599999999999,-0.003,-0.00019999999999999998,0.0089
8.96044802240112,-0.046599999999999996,0.2329,-9.768,-0.0025,-0.00030000000000000003,0.0089
8.970448522426121,-0.0378,0.22669999999999998,-9.7576,-0.003,-0.0007999999999999999,0.008799999999999999
8.980449022451122,-0.028999999999999998,0.20579999999999998,-9.7599,-0.0028,-0.0007999999999999999,0.0087
8.990449522476124,-0.029300000000000003,0.21679999999999996,-9.757299999999999,-0.0028,-0.0006000000000000001,0.0087
9.000450022501125,-0.031599999999999996,0.212,-9.758,-0.0028,-0.0006000000000000001,0.0086
9.010450522526126,-0.036699999999999997,0.2101,-9.7654,-0.0024000000000000002,-0.0009,0.0086
9.020451022551127,-0.018000000000000002,0.23839999999999997,-9.7853,-0.0025,-0.0007999999999999999,0.0087
9.03045152257613,-0.0475,0.2242,-9.777099999999999,-0.0023,-0.001,0.0084
9.04045202260113,-0.039,0.21180000000000002,-9.764899999999999,-0.0024000000000000002,-0.0014,0.0085
9.05045252262613,-0.0254,0.2086,-9.765,-0.0015999999999999999,-0.0013,0.0084
9.060453022651133,-0.025799999999999997,0.21689999999999998,-9.7661,-0.0010999999999999998,-0.0010999999999999998,0.0084
9.070453522676134,-0.0325,0.2079,-9.7676,-0.0009,-0.0012000000000000001,0.0084
9.080454022701135,-0.029500000000000002,0.2196,-9.772,-0.00039999999999999996,-0.0013,0.0084
9.090454522726136,-0.0224,0.23700000000000002,-9.775599999999999,-0.0007,-0.0014,0.0084
9.100455022751138,-0.0414,0.22460000000000002,-9.7761,-0.0007,-0.0015999999999999999,0.0082
9.110455522776139,-0.036699999999999997,0.216,-9.7711,-0.0009,-0.0018,0.0083
9.12045602280114,-0.024499999999999997,0.2105,-9.7682,-0.0006000000000000001,-0.0017,0.0082
9.130456522826142,-0.0301,0.21359999999999998,-9.7686,-0.00039999999999999996,-0.0017,0.0082
9.140457022851143,-0.032299999999999995,0.21849999999999997,-9.767000000000001,-9.999999999999999e-05,-0.0017,0.0081
9.150457522876144,-0.029599999999999998,0.22290000000000001,-9.7802,-0.00019999999999999998,-0.0017,0.0081
9.160458022901144,-0.0246,0.23979999999999999,-9.7888,-0.0006000000000000001,-0.0018,0.0081
9.170458522926147,-0.042,0.2295,-9.7833,-0.0007999999999999999,-0.002,0.008
9.180459022951148,-0.0375,0.22490000000000002,-9.7764,-0.0013,-0.0021999999999999997,0.008
9.190459522976148,-0.034999999999999996,0.21259999999999998,-9.7691,-0.0013,-0.0021999999999999997,0.007899999999999999
9.20046002300115,-0.025,0.20809999999999998,-9.764399999999998,-0.0007999999999999999,-0.0021,0.007899999999999999
9.210460523026152,-0.0229,0.2117,-9.7721,-0.0006000000000000001,-0.0021,0.0078
9.220461023051152,-0.0325,0.21259999999999998,-9.787899999999999,-0.00030000000000000003,-0.002,0.007899999999999999
9.230461523076153,-0.0337,0.22899999999999998,-9.794899999999998,-0.00030000000000000003,-0.0021999999999999997,0.007899999999999999
9.240462023101156,-0.0368,0.2307,-9.7837,0.0,-0.0026,0.0077
9.250462523126156,-0.0337,0.2323,-9.7831,-0.0006000000000000001,-0.0028,0.0078
9.260463023151157,-0.0353,0.2143,-9.7668,-0.0009,-0.0026999999999999997,0.0077
9.27046352317616,-0.0272,0.2254,-9.770299999999999,-0.0007,-0.0026,0.0078
9.28046402320116,-0.026600000000000002,0.2234,-9.767199999999999,-0.0007999999999999999,-0.0026,0.0077
9.290464523226161,-0.0206,0.22,-9.786499999999998,-0.0006000000000000001,-0.0025,0.0077
9.300465023251162,-0.0326,0.2235,-9.7983,-0.0006000000000000001,-0.0025,0.0078
9.310465523276164,-0.038400000000000004,0.2317,-9.7843,0.0,-0.0029,0.0077
9.320466023301165,-0.027399999999999997,0.23809999999999998,-9.7927,-0.0006000000000000001,-0.0031,0.0077
9.330466523326166,-0.033100000000000004,0.22460000000000002,-9.7868,-0.0009,-0.0028,0.007499999999999999
9.340467023351168,-0.0288,0.21610000000000001,-9.785,-0.002,-0.0026999999999999997,0.0073999999999999995
9.35046752337617,-0.0332,0.21949999999999997,-9.7776,-0.002,-0.0029,0.007499999999999999
9.36046802340117,-0.027,0.2144,-9.786999999999999,-0.0026,-0.0029,0.0073
9.37046852342617,-0.025,0.2196,-9.7973,-0.0025,-0.0029,0.0076
9.380469023451173,-0.0431,0.2422,-9.7816,-0.0015999999999999999,-0.0033,0.0076
9.390469523476174,-0.0292,0.2497,-9.7821,-0.0023,-0.0036,0.007499999999999999
9.400470023501175,-0.034999999999999996,0.2197,-9.775,-0.0026999999999999997,-0.0036,0.0073999999999999995
9.410470523526175,-0.0222,0.22190000000000001,-9.7818,-0.0033,-0.0033,0.007499999999999999
9.420471023551178,-0.0238,0.2166,-9.7883,-0.0034,-0.0031999999999999997,0.0073999999999999995
9.430471523576179,-0.027,0.20609999999999998,-9.7983,-0.0036,-0.0034,0.0073
9.44047202360118,-0.0265,0.2107,-9.797799999999999,-0.0031999999999999997,-0.0033,0.0073
9.450472523626182,-0.0321,0.24459999999999998,-9.7967,-0.003,-0.0033,0.0073999999999999995
9.460473023651183,-0.0377,0.23839999999999997,-9.7837,-0.0036999999999999997,-0.0036,0.0072
9.470473523676183,-0.0334,0.21689999999999998,-9.772599999999999,-0.0041,-0.0036999999999999997,0.0072
9.480474023701184,-0.021599999999999998,0.2194,-9.7859,-0.0046,-0.0034,0.0073
9.490474523726187,-0.025500000000000002,0.22959999999999997,-9.7878,-0.0049,-0.0034,0.0073
9.500475023751187,-0.025799999999999997,0.22190000000000001,-9.8027,-0.0060999999999999995,-0.0036,0.0072
9.510475523776188,-0.0304,0.2183,-9.8072,-0.0060999999999999995,-0.0039,0.0073
9.52047602380119,-0.0186,0.2483,-9.8133,-0.0069,-0.0038,0.0073
9.530476523826191,-0.0357,0.2311,-9.7972,-0.0071,-0.0038,0.0071
9.540477023851192,-0.0326,0.2104,-9.7886,-0.0071,-0.004,0.0072
9.550477523876193,-0.0259,0.1936,-9.7834,-0.0063,-0.0038,0.0072
9.560478023901195,-0.021599999999999998,0.22790000000000002,-9.799299999999999,-0.005399999999999999,-0.0034999999999999996,0.0073999999999999995
9.570478523926196,-0.0276,0.2291,-9.7959,-0.0055,-0.0036999999999999997,0.0071
9.580479023951197,-0.0224,0.2141,-9.7988,-0.0055,-0.004,0.0073
9.5904795239762,-0.0226,0.22769999999999999,-9.8169,-0.0057,-0.004,0.0072
9.6004800240012,-0.0356,0.2369,-9.7932,-0.0059,-0.004,0.0072
9.610480524026201,-0.0279,0.21779999999999997,-9.7995,-0.006,-0.0041,0.0073
9.620481024051202,-0.0338,0.1951,-9.7903,-0.005399999999999999,-0.0041,0.0072
9.630481524076204,-0.0225,0.20679999999999998,-9.7839,-0.005399999999999999,-0.0041,0.0072
9.640482024101205,-0.0236,0.21180000000000002,-9.794799999999999,-0.0050999999999999995,-0.0041,0.0072
9.650482524126206,-0.0202,0.2141,-9.801400000000001,-0.005399999999999999,-0.004,0.0073
9.660483024151208,-0.0163,0.2105,-9.8154,-0.0055,-0.004,0.0072
9.670483524176209,-0.034699999999999995,0.23129999999999998,-9.8026,-0.0058,-0.0042,0.0072
9.68048402420121,-0.028499999999999998,0.2203,-9.8054,-0.0067,-0.0042,0.0071
9.69048452422621,-0.031,0.1977,-9.7917,-0.0068,-0.0042,0.0071
9.700485024251213,-0.019799999999999998,0.20240000000000002,-9.804599999999999,-0.0069,-0.0041,0.0071
9.710485524276214,-0.0279,0.2029,-9.8052,-0.0063999999999999994,-0.004,0.0071
9.720486024301215,-0.0214,0.1924,-9.807699999999999,-0.0058,-0.0042,0.006999999999999999
9.730486524326217,-0.0196,0.20470000000000002,-9.7979,-0.0046,-0.004399999999999999,0.0072
9.740487024351218,-0.019,0.22139999999999999,-9.8203,-0.0041,-0.0042,0.0071
9.750487524376219,-0.0342,0.212,-9.8104,-0.004,-0.0043,0.006999999999999999
9.76048802440122,-0.0238,0.1962,-9.8072,-0.004399999999999999,-0.0043,0.006999999999999999
9.770488524426222,-0.0259,0.1938,-9.809099999999999,-0.0043,-0.0043,0.006999999999999999
9.780489024451223,-0.023,0.20339999999999997,-9.801,-0.0039,-0.0043,0.006999999999999999
9.790489524476223,-0.0226,0.20279999999999998,-9.8058,-0.0034,-0.0043,0.0069
9.800490024501226,-0.025300000000000003,0.2033,-9.7923,-0.0031,-0.004399999999999999,0.006999999999999999
9.810490524526227,-0.0073,0.2112,-9.8204,-0.0036,-0.0043,0.0069
9.820491024551227,-0.0375,0.2173,-9.8048,-0.0031,-0.0043,0.0069
9.830491524576228,-0.0248,0.20639999999999997,-9.8119,-0.0036,-0.004399999999999999,0.0069
9.84049202460123,-0.026899999999999997,0.1895,-9.8085,-0.0033,-0.0045000000000000005,0.0069
9.850492524626231,-0.023299999999999998,0.20879999999999999,-9.8067,-0.0036,-0.004399999999999999,0.0068
9.860493024651232,-0.014899999999999998,0.203,-9.799,-0.0033,-0.004399999999999999,0.0067
9.870493524676235,-0.018699999999999998,0.20170000000000002,-9.812,-0.0033,-0.0042,0.0067
9.880494024701235,-0.0238,0.20179999999999998,-9.8034,-0.0031999999999999997,-0.0041,0.0068
9.890494524726236,-0.0168,0.2164,-9.826,-0.0031999999999999997,-0.0041,0.0069
9.900495024751237,-0.0322,0.20110000000000003,-9.8219,-0.0031999999999999997,-0.0042,0.0067
9.91049552477624,-0.0264,0.19970000000000002,-9.814,-0.0031,-0.0046,0.0067
9.92049602480124,-0.0203,0.19949999999999998,-9.7994,-0.0031999999999999997,-0.0046,0.0067
9.930496524826241,-0.0185,0.1989,-9.8002,-0.0028,-0.004399999999999999,0.0066
9.940497024851243,-0.0146,0.2013,-9.8168,-0.0029,-0.0042,0.0066
9.950497524876244,-0.028699999999999996,0.2049,-9.802299999999999,-0.0025,-0.0043,0.0067
9.960498024901245,-0.0125,0.20909999999999998,-9.8273,-0.0031,-0.0045000000000000005,0.0066
9.970498524926246,-0.0302,0.208,-9.824399999999999,-0.003,-0.004399999999999999,0.0066
9.980499024951248,-0.0168,0.20240000000000002,-9.8153,-0.0034999999999999996,-0.0043,0.0063999999999999994
9.990499524976249,-0.0314,0.18910000000000002,-9.803099999999999,-0.0034,-0.0043,0.0066
10.00050002500125,-0.014499999999999999,0.19090000000000001,-9.808300000000001,-0.0031999999999999997,-0.0041,0.0065
10.01050052502625,-0.0186,0.2049,-9.8149,-0.003,-0.0039,0.0065
10.020501025051253,-0.0205,0.20370000000000002,-9.8158,-0.0031,-0.0041,0.0065
10.030501525076254,-0.0246,0.1928,-9.8203,-0.0026,-0.004399999999999999,0.0065
10.040502025101254,-0.0167,0.21949999999999997,-9.8219,-0.0024000000000000002,-0.0043,0.0067
10.050502525126257,-0.029300000000000003,0.2176,-9.8201,-0.0024000000000000002,-0.0043,0.0063999999999999994
10.060503025151258,-0.0252,0.19519999999999998,-9.809199999999999,-0.0026,-0.0045000000000000005,0.0065
10.070503525176258,-0.022699999999999998,0.18569999999999998,-9.8073,-0.0021,-0.0043,0.0063999999999999994
10.08050402520126,-0.0154,0.1991,-9.8158,-0.0018,-0.004,0.0063999999999999994
10.090504525226262,-0.0165,0.1984,-9.8181,-0.0019,-0.0041,0.0063
10.100505025251262,-0.0193,0.1976,-9.8138,-0.0015,-0.0042,0.0063999999999999994
10.110505525276263,-0.0082,0.22390000000000002,-9.8315,-0.0021,-0.0041,0.0065
10.120506025301266,-0.0333,0.22019999999999998,-9.8118,-0.0023,-0.004,0.0063999999999999994
10.130506525326266,-0.024499999999999997,0.2102,-9.8133,-0.0034,-0.0042,0.0063999999999999994
10.140507025351267,-0.025099999999999997,0.18409999999999999,-9.800699999999999,-0.0036999999999999997,-0.0042,0.0063999999999999994
10.150507525376268,-0.0117,0.19090000000000001,-9.816999999999998,-0.0033,-0.0039,0.0065
10.16050802540127,-0.0225,0.20309999999999997,-9.8121,-0.0026999999999999997,-0.0039,0.0065
10.170508525426271,-0.0124,0.2022,-9.8223,-0.003,-0.0041,0.0063
10.180509025451272,-0.026099999999999998,0.1906,-9.8179,-0.0029,-0.0041,0.0063999999999999994
10.190509525476275,-0.0181,0.2086,-9.8203,-0.0024000000000000002,-0.004,0.0063999999999999994
10.200510025501275,-0.0184,0.21919999999999998,-9.819600000000001,-0.0025,-0.004,0.0063999999999999994
10.210510525526276,-0.0214,0.1926,-9.8219,-0.0026,-0.004,0.0063
10.220511025551277,-0.0206,0.18539999999999998,-9.8193,-0.0023,-0.0039,0.0063999999999999994
10.23051152557628,-0.0171,0.2033,-9.8169,-0.0018,-0.0038,0.0063999999999999994
10.24051202560128,-0.0152,0.2056,-9.8189,-0.0019,-0.004,0.0062
10.25051252562628,-0.0161,0.1877,-9.8132,-0.0015,-0.0039,0.0063
10.260513025651283,-0.0065,0.20470000000000002,-9.8296,-0.0015,-0.0038,0.0063999999999999994
10.270513525676284,-0.024499999999999997,0.2194,-9.8216,-0.0012000000000000001,-0.0036999999999999997,0.0063999999999999994
10.280514025701285,-0.0252,0.2029,-9.8138,-0.0017,-0.004,0.0062
10.290514525726286,-0.016,0.1846,-9.8212,-0.0017,-0.0038,0.0063
10.300515025751288,-0.012799999999999999,0.1924,-9.8248,-0.0021999999999999997,-0.0034,0.0062
10.310515525776289,-0.0165,0.1954,-9.8215,-0.0017,-0.0034,0.0062
10.32051602580129,-0.0139,0.1759,-9.8333,-0.002,-0.0034,0.006
10.330516525826292,-0.0123,0.1823,-9.825899999999999,-0.0013,-0.0034,0.0062
10.340517025851293,-0.0116,0.21289999999999998,-9.8222,-0.0009,-0.0034,0.0062
10.350517525876294,-0.0263,0.2035,-9.8161,-0.00039999999999999996,-0.0034999999999999996,0.006
10.360518025901294,-0.0249,0.2001,-9.8136,-0.0006000000000000001,-0.0034999999999999996,0.0063
10.370518525926297,-0.0225,0.1939,-9.807599999999999,-0.0007999999999999999,-0.0034,0.006
10.380519025951298,-0.0073,0.1975,-9.8247,-0.0009,-0.0034,0.0060999999999999995
10.390519525976298,-0.013699999999999999,0.1887,-9.8226,-0.001,-0.0033,0.0059
10.4005200260013,-0.0077,0.1828,-9.8278,-0.00039999999999999996,-0.0031999999999999997,0.0059
10.410520526026302,-0.0194,0.1983,-9.8167,-9.999999999999999e-05,-0.0031,0.006
10.420521026051302,-0.0082,0.2194,-9.8302,0.00019999999999999998,-0.0029,0.0059
10.430521526076303,-0.0279,0.2083,-9.8225,-0.00019999999999999998,-0.0028,0.0059
10.440522026101306,-0.0189,0.1926,-9.8155,-9.999999999999999e-05,-0.0029,0.0059
10.450522526126306,-0.0112,0.20439999999999997,-9.8156,-0.0007999999999999999,-0.0028,0.0058
10.460523026151307,-0.009399999999999999,0.1906,-9.8188,-0.0007999999999999999,-0.0026999999999999997,0.0058
10.47052352617631,-0.0131,0.1918,-9.8271,-0.001,-0.0026999999999999997,0.0058
10.48052402620131,-0.0173,0.1954,-9.8179,-0.0006000000000000001,-0.0029,0.0057
10.490524526226311,-0.009600000000000001,0.21359999999999998,-9.8263,-0.0009,-0.0029,0.0059
10.500525026251312,-0.0234,0.2062,-9.8226,-0.0005,-0.0026999999999999997,0.0057
10.510525526276314,-0.0186,0.1992,-9.8188,-0.0006000000000000001,-0.0028,0.0058
10.520526026301315,-0.0131,0.1878,-9.812999999999999,-0.0006000000000000001,-0.0028,0.0057
10.530526526326316,-0.0092,0.20040000000000002,-9.8163,-0.00019999999999999998,-0.0026,0.0057
10.540527026351317,-0.010799999999999999,0.1961,-9.812800000000001,-0.0005,-0.0024000000000000002,0.0056
10.55052752637632,-0.0091,0.1999,-9.83,-0.0007999999999999999,-0.0023,0.0057
10.56052802640132,-0.0186,0.2043,-9.8181,-0.0009,-0.0024000000000000002,0.0055
10.57052852642632,-0.012,0.22190000000000001,-9.819600000000001,-0.0007,-0.0023,0.0057
10.580529026451323,-0.0178,0.20240000000000002,-9.8144,-0.0009,-0.0021999999999999997,0.005399999999999999
10.590529526476324,-0.0214,0.1846,-9.812899999999999,-0.0006000000000000001,-0.0021999999999999997,0.0056
10.600530026501325,-0.0138,0.19559999999999997,-9.811499999999999,-0.00030000000000000003,-0.0021,0.0056
10.610530526526325,-0.010199999999999999,0.20409999999999998,-9.818999999999999,-0.0,-0.0021,0.0056
10.620531026551328,-0.0146,0.1906,-9.819600000000001,-0.00019999999999999998,-0.0021999999999999997,0.005399999999999999
10.630531526576329,-0.010799999999999999,0.19849999999999998,-9.8165,-9.999999999999999e-05,-0.0021,0.0055
10.64053202660133,-0.005399999999999999,0.216,-9.826,-0.00030000000000000003,-0.0021,0.0055
10.650532526626332,-0.0189,0.21,-9.8186,9.999999999999999e-05,-0.002,0.005399999999999999
10.660533026651333,-0.0226,0.19319999999999998,-9.818200000000001,-9.999999999999999e-05,-0.002,0.0055
10.670533526676333,-0.0115,0.1897,-9.8089,0.00039999999999999996,-0.0019,0.005399999999999999
10.680534026701334,-0.0078,0.2003,-9.821,0.0007,-0.0017,0.005399999999999999
10.690534526726337,-0.0182,0.20400000000000001,-9.810599999999999,0.001,-0.0015999999999999999,0.005399999999999999
10.700535026751337,-0.0097,0.20500000000000002,-9.814599999999999,0.0006000000000000001,-0.0017,0.005399999999999999
10.710535526776338,-0.0057,0.2079,-9.8261,0.0006000000000000001,-0.0015,0.005399999999999999
10.72053602680134,-0.0098,0.23809999999999998,-9.8284,0.00030000000000000003,-0.0013,0.0055
10.730536526826342,-0.0235,0.20929999999999999,-9.8275,-0.00039999999999999996,-0.0013,0.0053
10.740537026851342,-0.0151,0.1971,-9.8195,-0.0007999999999999999,-0.0015,0.0055
10.750537526876343,-0.014499999999999999,0.2089,-9.825000000000001,-0.001,-0.0010999999999999998,0.0055
10.760538026901346,-0.0086,0.2206,-9.8258,-0.0012000000000000001,-0.001,0.0055
10.770538526926346,-0.0182,0.2092,-9.8243,-0.0015999999999999999,-0.0010999999999999998,0.0053
10.780539026951347,-0.012799999999999999,0.1939,-9.8155,-0.0017,-0.0010999999999999998,0.005399999999999999
10.79053952697635,-0.0067,0.22269999999999998,-9.8247,-0.0015999999999999999,-0.001,0.0056
10.80054002700135,-0.0239,0.21710000000000002,-9.8143,-0.0014,-0.0009,0.0053
10.810540527026351,-0.0184,0.1941,-9.8155,-0.0019,-0.001,0.0055
10.820541027051352,-0.0191,0.1955,-9.812,-0.0015999999999999999,-0.0009,0.0055
10.830541527076354,-0.0025,0.2131,-9.821399999999999,-0.0015,-0.0007,0.0053
10.840542027101355,-0.0143,0.19949999999999998,-9.8158,-0.0014,-0.0006000000000000001,0.0053
10.850542527126356,-0.0111,0.1923,-9.799199999999999,-0.0015999999999999999,-0.0007,0.005399999999999999
10.860543027151358,0.0048000000000000004,0.2117,-9.826799999999999,-0.0015,-0.00019999999999999998,0.0055
10.870543527176359,-0.023,0.2231,-9.816999999999998,-0.0013,-9.999999999999999e-05,0.005399999999999999
10.88054402720136,-0.014100000000000001,0.21649999999999997,-9.8148,-0.0019,-0.00019999999999999998,0.0055
10.89054452722636,-0.0197,0.1911,-9.8105,-0.002,-0.00030000000000000003,0.0055
10.900545027251363,-0.0060999999999999995,0.20809999999999998,-9.8154,-0.0019,-9.999999999999999e-05,0.005399999999999999
10.910545527276364,-0.02,0.20579999999999998,-9.8033,-0.0017,-9.999999999999999e-05,0.0053
10.920546027301365,-0.009899999999999999,0.19729999999999998,-9.8103,-0.0018,-0.00019999999999999998,0.0053
10.930546527326367,-0.0087,0.1994,-9.8149,-0.0015,-0.0,0.0053
10.940547027351368,-0.0086,0.22829999999999998,-9.8215,-0.0015,9.999999999999999e-05,0.005399999999999999
10.950547527376369,-0.0215,0.22019999999999998,-9.8168,-0.0019,-9.999999999999999e-05,0.0052
10.96054802740137,-0.0144,0.192,-9.8063,-0.0018,-0.00019999999999999998,0.005399999999999999
10.970548527426372,-0.0131,0.19599999999999998,-9.7987,-0.0014,0.00019999999999999998,0.005399999999999999
10.980549027451373,-0.012199999999999999,0.2096,-9.804,-0.0009,0.00039999999999999996,0.0055
10.990549527476373,-0.0063999999999999994,0.1955,-9.806,-0.0009,0.0005,0.0053
11.000550027501376,-0.0093,0.1872,-9.8144,-0.00039999999999999996,0.00039999999999999996,0.005399999999999999
11.010550527526377,-0.0104,0.223,-9.8084,-0.0005,0.0005,0.0055
11.020551027551377,-0.0215,0.2109,-9.8139,-0.00030000000000000003,0.0007,0.0052
11.030551527576378,-0.0163,0.1971,-9.806199999999999,-0.0006000000000000001,0.00039999999999999996,0.005399999999999999
11.04055202760138,-0.0135,0.19449999999999998,-9.797799999999999,-9.999999999999999e-05,0.0005,0.0053
11.050552527626381,-0.013,0.20149999999999998,-9.803099999999999,-0.0,0.0007999999999999999,0.0053
11.060553027651382,-0.010799999999999999,0.19449999999999998,-9.7964,0.00019999999999999998,0.0007,0.0053
11.070553527676385,-0.0019,0.20149999999999998,-9.8126,0.00039999999999999996,0.0007999999999999999,0.005399999999999999
11.080554027701385,-0.0178,0.21080000000000002,-9.8206,0.00030000000000000003,0.0009,0.0053
11.090554527726386,-0.0152,0.22039999999999998,-9.8136,0.0006000000000000001,0.0009,0.005399999999999999
11.100555027751387,-0.0164,0.21180000000000002,-9.8067,0.0,0.0007,0.0053
11.11055552777639,-0.0142,0.1968,-9.8057,0.00030000000000000003,0.0009,0.005399999999999999
11.12055602780139,-0.0116,0.20240000000000002,-9.789399999999999,0.0005,0.0010999999999999998,0.0053
11.130556527826391,0.001,0.1999,-9.8024,0.0007,0.0012000000000000001,0.0053
11.140557027851392,-0.0169,0.1954,-9.805,0.0007999999999999999,0.0013,0.0052
11.150557527876394,-0.014499999999999999,0.1972,-9.8086,0.0013,0.0014,0.0053
11.160558027901395,-0.006,0.22190000000000001,-9.8201,0.0015,0.0014,0.005399999999999999
11.170558527926396,-0.026699999999999998,0.2117,-9.8117,0.0012000000000000001,0.0013,0.0052
11.180559027951398,-0.0164,0.1897,-9.795,0.0015999999999999999,0.0010999999999999998,0.0052
11.190559527976399,-0.0144,0.2045,-9.7951,0.0018,0.0014,0.0053
11.2005600280014,-0.0058,0.2056,-9.796199999999999,0.002,0.0015999999999999999,0.0053
11.2105605280264,-0.0043,0.19849999999999998,-9.8104,0.0019,0.0015999999999999999,0.0050999999999999995
11.220561028051403,-0.015799999999999998,0.20929999999999999,-9.8024,0.0018,0.0015999999999999999,0.0053
11.230561528076404,-0.0112,0.2194,-9.8067,0.002,0.0017,0.0052
11.240562028101404,-0.0171,0.22019999999999998,-9.8122,0.0015999999999999999,0.0018,0.0053
11.250562528126407,-0.0276,0.2006,-9.8,0.0012000000000000001,0.0018,0.0052
11.260563028151408,-0.007499999999999999,0.2049,-9.7988,0.0012000000000000001,0.0018,0.0053
11.270563528176408,-0.0078,0.2096,-9.7919,0.0014,0.0021,0.0052
11.28056402820141,-0.005,0.20179999999999998,-9.8033,0.0010999999999999998,0.0021999999999999997,0.0050999999999999995
11.290564528226412,-0.0183,0.20769999999999997,-9.805,0.0013,0.0021999999999999997,0.0052
11.300565028251413,-0.0067,0.222,-9.8124,0.001,0.0021999999999999997,0.0052
11.310565528276413,-0.0222,0.2208,-9.8079,0.0007999999999999999,0.002,0.0050999999999999995
11.320566028301416,-0.0225,0.2063,-9.7922,0.0007,0.0019,0.0050999999999999995
11.330566528326417,-0.0062,0.20179999999999998,-9.7863,0.0009,0.0021999999999999997,0.0050999999999999995
11.340567028351417,-0.0124,0.20240000000000002,-9.7867,0.0007999999999999999,0.0024000000000000002,0.0050999999999999995
11.350567528376418,-0.006,0.2056,-9.7986,0.0007999999999999999,0.0026,0.0052
11.36056802840142,-0.018000000000000002,0.2107,-9.8,0.0010999999999999998,0.0025,0.0050999999999999995
11.370568528426421,-0.0066,0.223,-9.8122,0.0006000000000000001,0.0024000000000000002,0.0050999999999999995
11.380569028451422,-0.0273,0.21419999999999997,-9.8009,0.0007999999999999999,0.0025,0.005
11.390569528476425,-0.0179,0.2112,-9.784099999999999,0.0007,0.0021999999999999997,0.0050999999999999995
11.400570028501425,-0.0103,0.19970000000000002,-9.777800000000001,0.0007,0.0025,0.005
11.410570528526426,-0.018000000000000002,0.20509999999999998,-9.7847,0.0007999999999999999,0.0028,0.0050999999999999995
11.420571028551427,-0.014799999999999999,0.2083,-9.7889,0.00039999999999999996,0.0028,0.005
11.43057152857643,-0.0123,0.20579999999999998,-9.7833,0.00030000000000000003,0.0025,0.005
11.44057202860143,-0.011,0.22669999999999998,-9.800699999999999,-0.0,0.0026,0.0050999999999999995
11.45057252862643,-0.0257,0.2213,-9.7985,-9.999999999999999e-05,0.0028,0.0049
11.460573028651433,-0.021599999999999998,0.20909999999999998,-9.7928,-0.0007999999999999999,0.0025,0.005
11.470573528676434,-0.020900000000000002,0.1916,-9.7735,-0.00039999999999999996,0.0025,0.005
11.480574028701435,-0.0023,0.2065,-9.7798,0.00030000000000000003,0.0029,0.005
11.490574528726436,-0.018699999999999998,0.20249999999999999,-9.786,0.0005,0.0031,0.0049
11.500575028751438,-0.0165,0.1987,-9.7821,0.0007999999999999999,0.0028,0.005
11.510575528776439,-0.0066,0.2297,-9.8059,0.0005,0.0028,0.0050999999999999995
11.52057602880144,-0.0278,0.22490000000000002,-9.790899999999999,0.00039999999999999996,0.0028,0.004699999999999999
11.530576528826442,-0.0169,0.21259999999999998,-9.786999999999999,-0.00019999999999999998,0.0026,0.005
11.540577028851443,-0.025,0.1958,-9.777800000000001,-0.00019999999999999998,0.0026999999999999997,0.0048000000000000004
11.550577528876444,-0.0049,0.20600000000000002,-9.770299999999999,0.00019999999999999998,0.0028,0.005
11.560578028901444,-0.0119,0.20170000000000002,-9.7782,0.0007999999999999999,0.003,0.005
11.570578528926447,-0.0169,0.2096,-9.785,0.0014,0.0029,0.005
11.580579028951448,-0.0087,0.2329,-9.796100000000001,0.0007999999999999999,0.003,0.005
11.590579528976448,-0.0319,0.2281,-9.787999999999998,0.00019999999999999998,0.0029,0.0048000000000000004
11.600580029001451,-0.024399999999999998,0.2096,-9.7874,-0.0006000000000000001,0.0026999999999999997,0.0049
11.610580529026452,-0.0131,0.20110000000000003,-9.7828,-0.0007,0.0029,0.0049
11.620581029051452,-0.013999999999999999,0.20679999999999998,-9.7746,-0.00019999999999999998,0.0031,0.0049
11.630581529076453,-0.0098,0.2016,-9.7838,-0.0,0.0033,0.0049
11.640582029101456,-0.020399999999999998,0.2075,-9.767000000000001,0.0007999999999999999,0.0031,0.005
11.650582529126456,-0.0066,0.2369,-9.7898,0.0006000000000000001,0.003,0.005
11.660583029151457,-0.032,0.219,-9.7871,0.00039999999999999996,0.0031,0.0048000000000000004
11.670583529176458,-0.0273,0.20279999999999998,-9.7956,0.0,0.003,0.0050999999999999995
11.68058402920146,-0.013300000000000001,0.2036,-9.7788,9.999999999999999e-05,0.0028,0.005
11.690584529226461,-0.006999999999999999,0.2086,-9.7759,0.0006000000000000001,0.0028,0.0049
11.700585029251462,-0.0173,0.1979,-9.778699999999999,0.001,0.0031999999999999997,0.0049
11.710585529276464,-0.021699999999999997,0.21489999999999998,-9.7731,0.0015,0.0031999999999999997,0.0050999999999999995
11.720586029301465,-0.0034999999999999996,0.2265,-9.7914,0.0013,0.0033,0.0049
11.730586529326466,-0.0339,0.2213,-9.7884,0.0015,0.0031999999999999997,0.0049
11.740587029351467,-0.025,0.21180000000000002,-9.7817,0.001,0.003,0.005
11.75058752937647,-0.0125,0.2053,-9.7835,0.001,0.0031,0.005
11.76058802940147,-0.0144,0.2121,-9.7735,0.0013,0.0031999999999999997,0.005
11.77058852942647,-0.0186,0.21080000000000002,-9.7812,0.001,0.0033,0.005
11.780589029451473,-0.0184,0.21289999999999998,-9.778699999999999,0.0013,0.0033,0.0050999999999999995
11.790589529476474,-0.0146,0.23500000000000001,-9.7922,0.0012000000000000001,0.0034,0.0052
11.800590029501475,-0.0333,0.21619999999999998,-9.7747,0.0010999999999999998,0.003,0.0049
11.810590529526475,-0.0208,0.2063,-9.774,0.001,0.0026999999999999997,0.0050999999999999995
11.820591029551478,-0.0173,0.2006,-9.7633,0.0012000000000000001,0.003,0.005
11.830591529576479,-0.0154,0.208,-9.7666,0.0014,0.0031,0.0050999999999999995
11.84059202960148,-0.0155,0.20370000000000002,-9.775699999999999,0.0012000000000000001,0.0031999999999999997,0.005
11.850592529626482,-0.018000000000000002,0.20500000000000002,-9.7679,0.0015999999999999999,0.0031,0.005
11.860593029651483,-0.0208,0.2238,-9.771,0.0023,0.0031,0.0053
11.870593529676484,-0.0242,0.2318,-9.774,0.0031,0.003,0.0050999999999999995
11.880594029701484,-0.028200000000000003,0.2105,-9.7685,0.0028,0.0029,0.0050999999999999995
11.890594529726487,-0.0194,0.1962,-9.7616,0.0036,0.003,0.005399999999999999
11.900595029751488,-0.014999999999999998,0.215,-9.755700000000001,0.004699999999999999,0.003,0.0052
11.910595529776488,-0.0167,0.21589999999999998,-9.7823,0.0042,0.0031999999999999997,0.0052
11.92059602980149,-0.0248,0.2033,-9.7719,0.004399999999999999,0.0033,0.005
11.930596529826492,-0.0115,0.223,-9.7905,0.0039,0.003,0.0053
11.940597029851492,-0.0302,0.2216,-9.771,0.0036999999999999997,0.0028,0.005
11.950597529876493,-0.029300000000000003,0.222,-9.774199999999999,0.0038,0.0026999999999999997,0.0052
11.960598029901496,-0.0161,0.21259999999999998,-9.758600000000001,0.0039,0.0026999999999999997,0.0052
11.970598529926496,-0.0124,0.22390000000000002,-9.7663,0.0041,0.0026999999999999997,0.0053
11.980599029951497,-0.030600000000000002,0.2242,-9.7616,0.0036999999999999997,0.0028,0.005399999999999999
11.9905995299765,-0.0132,0.2342,-9.778699999999999,0.0034999999999999996,0.0026999999999999997,0.005399999999999999
12.0006000300015,-0.019200000000000002,0.2435,-9.7851,0.0026999999999999997,0.0026999999999999997,0.0055
12.010600530026501,-0.0325,0.22659999999999997,-9.777,0.0024000000000000002,0.0026,0.005399999999999999
12.020601030051502,-0.0299,0.21789999999999998,-9.7587,0.0026,0.0024000000000000002,0.0055
12.030601530076504,-0.0065,0.21689999999999998,-9.7593,0.0026999999999999997,0.0026,0.005399999999999999
12.040602030101505,-0.0125,0.2107,-9.768,0.003,0.0031,0.005399999999999999
12.050602530126506,-0.031599999999999996,0.21710000000000002,-9.7665,0.0031,0.0031,0.0055
12.060603030151508,-0.0181,0.2334,-9.7753,0.0031,0.0028,0.0056
12.070603530176509,-0.0238,0.24849999999999997,-9.7905,0.0026,0.0026,0.0055
12.08060403020151,-0.0336,0.2359,-9.773,0.0015999999999999999,0.0023,0.0057
12.09060453022651,-0.0248,0.2184,-9.7605,0.0014,0.0021,0.0057
12.100605030251513,-0.018699999999999998,0.22390000000000002,-9.7517,0.0012000000000000001,0.002,0.0057
12.110605530276514,-0.010799999999999999,0.2075,-9.758999999999999,0.0013,0.0025,0.0058
12.120606030301515,-0.0305,0.21080000000000002,-9.7602,0.0019,0.0025,0.0058
12.130606530326517,-0.0202,0.22369999999999998,-9.772,0.0019,0.0023,0.0059
12.140607030351518,-0.0248,0.22369999999999998,-9.7764,0.0021999999999999997,0.0021999999999999997,0.0057
12.150607530376519,-0.024399999999999998,0.21610000000000001,-9.773900000000001,0.0021999999999999997,0.002,0.0057
12.16060803040152,-0.0201,0.214,-9.753,0.0021,0.0019,0.0057
12.170608530426522,-0.0174,0.22629999999999997,-9.7461,0.0017,0.002,0.0057
12.180609030451523,-0.0143,0.2196,-9.7613,0.0014,0.0025,0.0058
12.190609530476523,-0.028999999999999998,0.22629999999999997,-9.7716,0.0019,0.0025,0.006
12.200610030501526,-0.0242,0.2483,-9.7835,0.0010999999999999998,0.0021999999999999997,0.006
12.210610530526527,-0.026,0.23249999999999998,-9.7768,0.0007,0.0018,0.006
12.220611030551527,-0.0358,0.21849999999999997,-9.7562,0.0017,0.0014,0.0060999999999999995
12.230611530576528,-0.0155,0.216,-9.7537,0.0021,0.0015,0.006
12.24061203060153,-0.020399999999999998,0.22460000000000002,-9.7493,0.0024000000000000002,0.0017,0.0062
12.250612530626531,-0.0205,0.2223,-9.7494,0.0029,0.0015999999999999999,0.006
12.260613030651532,-0.023,0.22089999999999999,-9.7731,0.0028,0.0015999999999999999,0.006
12.270613530676533,-0.0163,0.24989999999999998,-9.7844,0.0021999999999999997,0.0015999999999999999,0.0062
12.280614030701535,-0.0238,0.2318,-9.7848,0.0019,0.0015,0.0057
12.290614530726536,-0.032,0.2151,-9.765799999999999,0.0015999999999999999,0.0013,0.0062
12.300615030751537,-0.0182,0.20769999999999997,-9.7561,0.0019,0.0015,0.0062
12.31061553077654,-0.014499999999999999,0.22529999999999997,-9.7581,0.0026,0.0017,0.0063999999999999994
12.32061603080154,-0.024499999999999997,0.2242,-9.7639,0.0023,0.0018,0.0063999999999999994
12.330616530826541,-0.0235,0.23129999999999998,-9.7732,0.0025,0.0015,0.0065
12.340617030851542,-0.032,0.2513,-9.7697,0.0017,0.0012000000000000001,0.0065
12.350617530876544,-0.022,0.2324,-9.7764,0.0007,0.0010999999999999998,0.0063999999999999994
12.360618030901545,-0.027399999999999997,0.21519999999999997,-9.7783,0.0005,0.0007999999999999999,0.0063
12.370618530926546,-0.0179,0.2072,-9.764100000000001,0.0006000000000000001,0.0007999999999999999,0.0063999999999999994
12.380619030951548,-0.0179,0.2174,-9.7551,0.0015,0.0009,0.0063999999999999994
12.390619530976549,-0.0224,0.2274,-9.764399999999998,0.0017,0.0010999999999999998,0.0063999999999999994
12.40062003100155,-0.0214,0.2316,-9.7762,0.0018,0.0013,0.0066
12.41062053102655,-0.0288,0.24069999999999997,-9.782499999999999,0.0021,0.0012000000000000001,0.0065
12.420621031051553,-0.032,0.24309999999999998,-9.771799999999999,0.0012000000000000001,0.0007999999999999999,0.0066
12.430621531076554,-0.0229,0.2153,-9.7682,0.0007999999999999999,0.0006000000000000001,0.0065
12.440622031101555,-0.017499999999999998,0.21689999999999998,-9.758600000000001,0.0010999999999999998,0.0007,0.0066
12.450622531126557,-0.017499999999999998,0.2151,-9.761899999999999,0.001,0.0010999999999999998,0.0067
12.460623031151558,-0.0262,0.21749999999999997,-9.7647,0.0014,0.0009,0.0068
12.470623531176559,-0.0177,0.2304,-9.780899999999999,0.0015,0.0007999999999999999,0.0068
12.48062403120156,-0.0366,0.2252,-9.78,0.002,0.0007,0.0067
12.490624531226562,-0.0239,0.2223,-9.7745,0.0017,0.00039999999999999996,0.0068
12.500625031251563,-0.0221,0.20839999999999997,-9.7685,0.002,0.00039999999999999996,0.0066
12.510625531276563,-0.017599999999999998,0.2213,-9.777,0.0023,0.0005,0.0068
12.520626031301566,-0.0231,0.2301,-9.760299999999999,0.0021999999999999997,0.0006000000000000001,0.0068
12.530626531326567,-0.0155,0.2271,-9.773299999999999,0.0018,0.0005,0.0068
12.540627031351567,-0.0206,0.2422,-9.7736,0.0018,0.0005,0.006999999999999999
12.550627531376568,-0.030899999999999997,0.2396,-9.7762,0.001,0.00039999999999999996,0.0068
12.56062803140157,-0.0291,0.2187,-9.7747,0.00039999999999999996,9.999999999999999e-05,0.006999999999999999
12.570628531426571,-0.0154,0.2101,-9.766399999999999,0.0005,9.999999999999999e-05,0.0068
12.580629031451572,-0.023,0.2228,-9.7531,0.0007,9.999999999999999e-05,0.006999999999999999
12.590629531476575,-0.0186,0.2143,-9.763,0.00019999999999999998,0.00030000000000000003,0.0069
12.600630031501575,-0.0097,0.2218,-9.780800000000001,0.00039999999999999996,0.00039999999999999996,0.0071
12.610630531526576,-0.0234,0.24209999999999998,-9.7902,-9.999999999999999e-05,0.00030000000000000003,0.006999999999999999
12.620631031551577,-0.0294,0.2305,-9.7779,-0.0005,-0.0,0.0069
12.63063153157658,-0.0279,0.22669999999999998,-9.7743,-0.0009,-9.999999999999999e-05,0.0071
12.64063203160158,-0.0189,0.216,-9.7692,-0.0007999999999999999,9.999999999999999e-05,0.006999999999999999
12.65063253162658,-0.0207,0.22269999999999998,-9.7635,-0.0009,-9.999999999999999e-05,0.0071
12.660633031651583,-0.0206,0.21359999999999998,-9.7728,-0.001,9.999999999999999e-05,0.0071
12.670633531676584,-0.0166,0.2144,-9.7834,-0.0006000000000000001,0.0,0.0071
12.680634031701585,-0.025799999999999997,0.2366,-9.7775,-0.0007,-0.00019999999999999998,0.0072
12.690634531726586,-0.021699999999999997,0.22729999999999997,-9.7836,-0.0007999999999999999,-0.0005,0.006999999999999999
12.700635031751588,-0.026099999999999998,0.2211,-9.7782,-0.0013,-0.0005,0.0072
12.710635531776589,-0.0195,0.2167,-9.7675,-0.0015,-0.00039999999999999996,0.0072
12.72063603180159,-0.015799999999999998,0.22390000000000002,-9.764899999999999,-0.0014,-0.0005,0.0071
12.730636531826592,-0.0172,0.20579999999999998,-9.773299999999999,-0.0021,-0.00030000000000000003,0.0072
12.740637031851593,-0.0155,0.21220000000000003,-9.7784,-0.0014,-0.00019999999999999998,0.0072
12.750637531876594,-0.0243,0.24309999999999998,-9.7784,-0.0015999999999999999,-0.00030000000000000003,0.0073
12.760638031901594,-0.019200000000000002,0.2252,-9.780999999999999,-0.0021,-0.0005,0.0071
12.770638531926597,-0.032,0.2049,-9.777099999999999,-0.0021,-0.0007,0.0073
12.780639031951598,-0.012899999999999998,0.2154,-9.765699999999999,-0.002,-0.0007,0.0072
12.790639531976598,-0.0166,0.20769999999999997,-9.7602,-0.0015999999999999999,-0.0007,0.0072
12.8006400320016,-0.0121,0.1996,-9.7737,-0.0015999999999999999,-0.0007,0.0073
12.810640532026602,-0.0169,0.21919999999999998,-9.7755,-0.001,-0.0006000000000000001,0.0073
12.820641032051602,-0.029799999999999997,0.245,-9.7794,-0.001,-0.0007999999999999999,0.0073
12.830641532076603,-0.0231,0.22360000000000002,-9.777099999999999,-0.0019,-0.0010999999999999998,0.0072
12.840642032101606,-0.026699999999999998,0.19970000000000002,-9.7848,-0.0017,-0.0010999999999999998,0.0073999999999999995
12.850642532126606,-0.010199999999999999,0.21450000000000002,-9.7723,-0.0018,-0.0010999999999999998,0.0073
12.860643032151607,-0.0076,0.21389999999999998,-9.7754,-0.0017,-0.001,0.0072
12.870643532176608,-0.0289,0.2063,-9.7635,-0.0017,-0.001,0.0073999999999999995
12.88064403220161,-0.0082,0.22399999999999998,-9.786200000000001,-0.0015,-0.0007999999999999999,0.007499999999999999
12.890644532226611,-0.0291,0.2375,-9.7823,-0.0019,-0.001,0.0073999999999999995
12.900645032251612,-0.0212,0.2264,-9.789399999999999,-0.0026999999999999997,-0.0014,0.0073999999999999995
12.910645532276614,-0.0276,0.20479999999999998,-9.773900000000001,-0.0029,-0.0015,0.0073999999999999995
12.920646032301615,-0.0091,0.20929999999999999,-9.7691,-0.0029,-0.0014,0.0073999999999999995
12.930646532326616,-0.0132,0.2066,-9.7635,-0.0026,-0.0014,0.0073999999999999995
12.940647032351617,-0.0135,0.21380000000000002,-9.7715,-0.0024000000000000002,-0.0014,0.007499999999999999
12.95064753237662,-0.0127,0.21710000000000002,-9.7918,-0.0025,-0.0012000000000000001,0.007499999999999999
12.96064803240162,-0.0284,0.2258,-9.7881,-0.0023,-0.0015,0.0073999999999999995
12.97064853242662,-0.0164,0.219,-9.7914,-0.0028,-0.0018,0.0076
12.980649032451623,-0.0189,0.1929,-9.7761,-0.0025,-0.0018,0.0073999999999999995
12.990649532476624,-0.010799999999999999,0.2098,-9.7704,-0.0021999999999999997,-0.0017,0.0076
13.000650032501625,-0.0171,0.217,-9.7686,-0.0023,-0.0015,0.007499999999999999
13.010650532526626,-0.0134,0.2063,-9.7781,-0.0025,-0.0015999999999999999,0.007499999999999999
13.020651032551628,-0.013300000000000001,0.208,-9.792,-0.0026,-0.0015,0.0076
13.030651532576629,-0.020399999999999998,0.22469999999999998,-9.790600000000001,-0.0024000000000000002,-0.0017,0.0076
13.04065203260163,-0.023299999999999998,0.2173,-9.793,-0.0029,-0.002,0.0076
13.050652532626632,-0.0249,0.1908,-9.774199999999999,-0.0026,-0.0023,0.0076
13.060653032651633,-0.0084,0.2094,-9.771,-0.0024000000000000002,-0.0021,0.007499999999999999
13.070653532676634,-0.0121,0.20479999999999998,-9.7758,-0.0024000000000000002,-0.002,0.0076
13.080654032701634,-0.0169,0.20839999999999997,-9.7738,-0.0023,-0.002,0.0077
13.090654532726637,-0.0046,0.2097,-9.8035,-0.0026,-0.002,0.0076
13.100655032751638,-0.0207,0.21989999999999998,-9.7933,-0.0025,-0.0021,0.0076
13.110655532776638,-0.0194,0.20639999999999997,-9.7952,-0.0029,-0.0023,0.007499999999999999
13.12065603280164,-0.0179,0.1972,-9.7805,-0.0026,-0.0024000000000000002,0.0076
13.130656532826642,-0.0132,0.1908,-9.7754,-0.0023,-0.0021999999999999997,0.007499999999999999
13.140657032851642,-0.0021,0.18860000000000002,-9.792,-0.002,-0.002,0.0076
13.150657532876643,-0.022699999999999998,0.2066,-9.7819,-0.0015,-0.002,0.0077
13.160658032901646,-0.0034999999999999996,0.20699999999999996,-9.7994,-0.0017,-0.0021999999999999997,0.007499999999999999
13.170658532926646,-0.020900000000000002,0.2205,-9.7988,-0.0019,-0.0021999999999999997,0.0077
13.180659032951647,-0.0195,0.20409999999999998,-9.8068,-0.003,-0.0021999999999999997,0.007499999999999999
13.19065953297665,-0.0151,0.19419999999999998,-9.8011,-0.0034,-0.0024000000000000002,0.007499999999999999
13.20066003300165,-0.0114,0.184,-9.7927,-0.0038,-0.0024000000000000002,0.0073999999999999995
13.210660533026651,-0.0055,0.1808,-9.7738,-0.0025,-0.0024000000000000002,0.0076
13.220661033051652,-0.0103,0.20379999999999998,-9.789,-0.002,-0.0024000000000000002,0.0076
13.230661533076654,-0.0196,0.21189999999999998,-9.7923,-0.0015999999999999999,-0.0024000000000000002,0.0076
13.240662033101655,-0.015799999999999998,0.22829999999999998,-9.7926,-0.0018,-0.0026,0.0076
13.250662533126656,-0.0155,0.2096,-9.794500000000001,-0.003,-0.0026999999999999997,0.007499999999999999
13.260663033151658,-0.0169,0.189,-9.793899999999999,-0.0033,-0.0026999999999999997,0.0076
13.27066353317666,-0.0038,0.1842,-9.7916,-0.0031999999999999997,-0.0025,0.007499999999999999
13.28066403320166,-0.0132,0.1861,-9.7834,-0.0021,-0.0024000000000000002,0.007499999999999999
13.29066453322666,-0.0127,0.1938,-9.7805,-0.0019,-0.0024000000000000002,0.0076
13.300665033251663,-0.0034,0.1986,-9.8033,-0.0015999999999999999,-0.0021999999999999997,0.007499999999999999
13.310665533276664,-0.0206,0.21580000000000002,-9.7991,-0.0014,-0.0024000000000000002,0.0076
13.320666033301665,-0.017,0.21389999999999998,-9.797,-0.0017,-0.0028,0.007499999999999999
13.330666533326667,-0.0191,0.1805,-9.783999999999999,-0.0018,-0.003,0.007499999999999999
13.340667033351668,-0.0104,0.18309999999999998,-9.7897,-0.0015999999999999999,-0.0029,0.0077
13.350667533376669,-0.0063,0.20149999999999998,-9.7847,-0.0012000000000000001,-0.0028,0.0076
13.36066803340167,-0.0048000000000000004,0.1928,-9.7953,-0.0012000000000000001,-0.0029,0.007499999999999999
13.370668533426672,-0.0143,0.19,-9.7926,-0.0010999999999999998,-0.0029,0.007499999999999999
