Time [s],ACC X [m/s^2],ACC Y [m/s^2],ACC Z [m/s^2],GYRO X [rad/s],GYRO Y [rad/s],GYRO Z [rad/s]
0.0,-0.002,0.23600000000000002,-9.7788,-0.0026,0.0014,0.0125
0.010000250006250157,0.0026,0.23509999999999998,-9.7782,-0.003,0.0015,0.0125
0.020000500012500314,-0.006,0.24209999999999998,-9.778,-0.0031999999999999997,0.0014,0.0125
0.030000750018750473,-0.0029,0.2519,-9.782,-0.0034999999999999996,0.0014,0.0124
0.04000100002500063,-0.0059,0.2477,-9.7805,-0.0043,0.0015,0.0124
0.050001250031250784,-0.0098,0.23540000000000003,-9.7729,-0.0045000000000000005,0.0015,0.0124
0.060001500037500946,-0.0036999999999999997,0.242,-9.7747,-0.0045000000000000005,0.0014,0.0125
0.0700017500437511,0.0036,0.244,-9.7816,-0.004699999999999999,0.0015,0.0123
0.08000200005000126,-0.0077,0.22690000000000002,-9.7751,-0.005,0.0015,0.0124
0.09000225005625141,0.0041,0.2319,-9.786200000000001,-0.0049,0.0015,0.0124
0.10000250006250157,-0.0097,0.2486,-9.777,-0.0049,0.0012000000000000001,0.0124
0.11000275006875172,-0.0039,0.2426,-9.7746,-0.005399999999999999,0.0010999999999999998,0.0123
0.12000300007500189,-0.0117,0.22190000000000001,-9.771199999999999,-0.0053,0.0010999999999999998,0.0123
0.13000325008125205,-0.0013,0.2265,-9.7708,-0.0050999999999999995,0.0010999999999999998,0.0123
0.1400035000875022,-0.003,0.2297,-9.7653,-0.0048000000000000004,0.001,0.0123
0.15000375009375236,0.0017,0.2211,-9.773299999999999,-0.004699999999999999,0.0010999999999999998,0.0123
0.1600040001000025,-0.0087,0.2173,-9.77,-0.0036,0.001,0.0123
0.17000425010625267,0.0038,0.23609999999999998,-9.777199999999999,-0.0034,0.001,0.0124
0.18000450011250282,-0.0084,0.24710000000000001,-9.7732,-0.0028,0.001,0.0123
0.19000475011875298,-0.0112,0.23029999999999998,-9.7587,-0.003,0.0007999999999999999,0.0123
0.20000500012500314,-0.0056,0.21710000000000002,-9.7648,-0.0025,0.0009,0.0123
0.2100052501312533,-0.0026,0.22769999999999999,-9.7759,-0.0026,0.0012000000000000001,0.012199999999999999
0.22000550013750345,-0.0043,0.2281,-9.7783,-0.0023,0.001,0.0121
0.2300057501437536,-0.0036999999999999997,0.21989999999999998,-9.7822,-0.0025,0.0009,0.0121
0.24000600015000378,0.0017,0.2285,-9.7875,-0.0024000000000000002,0.0007999999999999999,0.012199999999999999
0.25000625015625394,-0.005399999999999999,0.2533,-9.780899999999999,-0.0021999999999999997,0.0007,0.0123
0.2600065001625041,-0.0109,0.247,-9.7748,-0.0024000000000000002,0.0006000000000000001,0.012199999999999999
0.27000675016875425,-0.0101,0.2294,-9.7682,-0.0026999999999999997,0.00039999999999999996,0.0123
0.2800070001750044,-0.0036999999999999997,0.22499999999999998,-9.7731,-0.0029,0.0005,0.012199999999999999
0.29000725018125456,-0.0063,0.2304,-9.7776,-0.0029,0.0005,0.012199999999999999
0.3000075001875047,0.0021,0.2287,-9.783999999999999,-0.0029,0.0005,0.012
0.31000775019375487,-0.0029,0.2222,-9.7814,-0.0028,0.0005,0.0121
0.320008000200005,0.0005,0.2274,-9.7861,-0.0028,0.0005,0.0121
0.3300082502062552,-0.0066,0.2511,-9.775599999999999,-0.0026,0.0005,0.012199999999999999
0.34000850021250534,-0.0063999999999999994,0.2441,-9.7763,-0.003,0.0005,0.0121
0.3500087502187555,-0.0072,0.22139999999999999,-9.774,-0.0031999999999999997,0.0005,0.012199999999999999
0.36000900022500565,-0.0059,0.2309,-9.772,-0.0034,0.0005,0.012199999999999999
0.3700092502312558,-0.0063,0.23770000000000002,-9.7781,-0.0034999999999999996,0.00030000000000000003,0.012199999999999999
0.38000950023750596,-0.0019,0.23149999999999998,-9.7835,-0.0039,0.00019999999999999998,0.0121
0.3900097502437561,-0.0078,0.223,-9.774199999999999,-0.0041,0.00019999999999999998,0.0121
0.40001000025000627,0.0045000000000000005,0.23809999999999998,-9.782,-0.0045000000000000005,9.999999999999999e-05,0.012199999999999999
0.4100102502562564,-0.0135,0.2416,-9.7722,-0.0043,-0.0,0.0121
0.4200105002625066,-0.0025,0.2333,-9.7747,-0.0048000000000000004,9.999999999999999e-05,0.012199999999999999
0.43001075026875674,-0.0041,0.2238,-9.7792,-0.0048000000000000004,0.00019999999999999998,0.0121
0.4400110002750069,-0.0111,0.23470000000000002,-9.7817,-0.0052,9.999999999999999e-05,0.012199999999999999
0.45001125028125705,-0.0026999999999999997,0.2362,-9.7802,-0.0052,-9.999999999999999e-05,0.0121
0.4600115002875072,0.0041,0.23059999999999997,-9.7839,-0.0057,0.0,0.012199999999999999
0.47001175029375736,-0.0063,0.22959999999999997,-9.7882,-0.0060999999999999995,9.999999999999999e-05,0.0121
0.48001200030000757,-0.006,0.245,-9.7769,-0.0066,0.0,0.0123
0.4900122503062577,-0.007899999999999999,0.23939999999999997,-9.7813,-0.0068,-9.999999999999999e-05,0.012199999999999999
0.5000125003125079,-0.0071,0.22360000000000002,-9.778,-0.006999999999999999,-0.00019999999999999998,0.0123
0.510012750318758,-0.0026,0.21849999999999997,-9.7794,-0.0069,-0.00019999999999999998,0.012199999999999999
0.5200130003250082,-0.0086,0.22659999999999997,-9.7803,-0.0069,-0.00030000000000000003,0.0123
0.5300132503312583,0.00019999999999999998,0.2248,-9.779300000000001,-0.0068,-0.00039999999999999996,0.012199999999999999
0.5400135003375085,0.0028,0.223,-9.7839,-0.0071,-0.00030000000000000003,0.012199999999999999
0.5500137503437587,-0.0013,0.22999999999999998,-9.7919,-0.0077,-0.00030000000000000003,0.012199999999999999
0.5600140003500088,0.0017,0.24169999999999997,-9.7878,-0.008,-0.00030000000000000003,0.0123
0.570014250356259,-0.0092,0.2442,-9.7835,-0.0084,-0.00030000000000000003,0.012199999999999999
0.5800145003625091,-0.0062,0.2228,-9.779300000000001,-0.0091,-0.00030000000000000003,0.0124
0.5900147503687593,-0.0017,0.20479999999999998,-9.786200000000001,-0.009000000000000001,-0.00019999999999999998,0.0123
0.6000150003750094,-0.0104,0.2127,-9.7716,-0.0078,-0.0006000000000000001,0.0124
0.6100152503812596,0.0093,0.2137,-9.7805,-0.0073999999999999995,-0.0005,0.012199999999999999
0.6200155003875097,-0.0026,0.21380000000000002,-9.786999999999999,-0.0076,-0.00039999999999999996,0.0123
0.6300157503937599,-0.0039,0.2213,-9.7857,-0.0081,-0.0006000000000000001,0.0123
0.64001600040001,-0.0057,0.2409,-9.7768,-0.008,-0.001,0.0125
0.6500162504062602,0.0012000000000000001,0.2301,-9.783,-0.008799999999999999,-0.0009,0.0121
0.6600165004125104,-0.0015999999999999999,0.20470000000000002,-9.7861,-0.009399999999999999,-0.0006000000000000001,0.0124
0.6700167504187605,-0.0063,0.2001,-9.7752,-0.009000000000000001,-0.0007,0.0124
0.6800170004250107,0.0018,0.21220000000000003,-9.7781,-0.0081,-0.0009,0.0124
0.6900172504312608,0.005399999999999999,0.21220000000000003,-9.7876,-0.0083,-0.0007,0.0124
0.700017500437511,-0.0031,0.20400000000000001,-9.7866,-0.008,-0.0006000000000000001,0.0123
0.7100177504437611,-0.0033,0.2183,-9.7869,-0.0082,-0.0007999999999999999,0.0125
0.7200180004500113,0.0025,0.23059999999999997,-9.7871,-0.0085,-0.001,0.0124
0.7300182504562615,0.0012000000000000001,0.2117,-9.7901,-0.0093,-0.0007999999999999999,0.0123
0.7400185004625116,-0.0062,0.1905,-9.7866,-0.009000000000000001,-0.0009,0.0124
0.7500187504687618,-0.0082,0.2066,-9.7831,-0.0084,-0.0010999999999999998,0.0125
0.7600190004750119,-0.0015,0.21180000000000002,-9.7781,-0.0077,-0.0013,0.0125
0.7700192504812621,0.0045000000000000005,0.20709999999999998,-9.7884,-0.0073,-0.0012000000000000001,0.0125
0.7800195004875122,0.001,0.2099,-9.7928,-0.0073,-0.0010999999999999998,0.0125
0.7900197504937624,0.0006000000000000001,0.21189999999999998,-9.7912,-0.0077,-0.0014,0.0125
0.8000200005000125,-0.0045000000000000005,0.2194,-9.7823,-0.0076,-0.0015,0.0126
0.8100202505062627,0.004399999999999999,0.2134,-9.791,-0.0083,-0.0012000000000000001,0.0126
0.8200205005125129,-0.0026,0.1976,-9.7918,-0.0082,-0.0012000000000000001,0.0126
0.830020750518763,-0.0107,0.2056,-9.7789,-0.0085,-0.0013,0.0126
0.8400210005250132,0.0072,0.20579999999999998,-9.776,-0.0085,-0.0014,0.0126
0.8500212505312633,0.0046,0.20240000000000002,-9.7882,-0.0087,-0.0012000000000000001,0.0127
0.8600215005375135,0.003,0.19519999999999998,-9.793,-0.008799999999999999,-0.0012000000000000001,0.0126
0.8700217505437636,-0.00030000000000000003,0.2059,-9.797,-0.0093,-0.0013,0.012799999999999999
0.8800220005500138,-0.0015999999999999999,0.2134,-9.7956,-0.0095,-0.0015,0.0127
0.8900222505562639,-0.0056,0.20270000000000002,-9.789100000000001,-0.01,-0.0015999999999999999,0.012799999999999999
0.9000225005625141,-0.0024000000000000002,0.19449999999999998,-9.7843,-0.0101,-0.0017,0.0127
0.9100227505687642,0.0025,0.19659999999999997,-9.7854,-0.0103,-0.0017,0.012799999999999999
0.9200230005750144,0.0017,0.1876,-9.7854,-0.01,-0.0015999999999999999,0.0127
0.9300232505812646,-0.0,0.1888,-9.787999999999998,-0.0098,-0.0017,0.012799999999999999
0.9400235005875147,0.0087,0.1925,-9.799199999999999,-0.0101,-0.0017,0.0127
0.9500237505937649,0.0021,0.20040000000000002,-9.7996,-0.0103,-0.0017,0.012799999999999999
0.9600240006000151,-0.0015999999999999999,0.19849999999999998,-9.7838,-0.0103,-0.0018,0.0127
0.9700242506062653,0.0005,0.1905,-9.7817,-0.010799999999999999,-0.0019,0.012899999999999998
0.9800245006125154,0.0023,0.1828,-9.7837,-0.010799999999999999,-0.0018,0.012799999999999999
0.9900247506187656,0.001,0.1867,-9.7964,-0.010799999999999999,-0.0017,0.012899999999999998
1.0000250006250158,-0.0041,0.18810000000000002,-9.7802,-0.0101,-0.002,0.012899999999999998
1.010025250631266,0.0116,0.1819,-9.792399999999999,-0.01,-0.002,0.012899999999999998
1.020025500637516,0.0059,0.1863,-9.7959,-0.0098,-0.0019,0.013
1.0300257506437662,0.0033,0.18860000000000002,-9.794,-0.0098,-0.0021,0.012899999999999998
1.0400260006500164,0.0,0.1919,-9.795,-0.009600000000000001,-0.0021999999999999997,0.013
1.0500262506562665,-0.001,0.1772,-9.7846,-0.0098,-0.0021999999999999997,0.013
1.0600265006625167,0.0031999999999999997,0.17129999999999998,-9.7899,-0.009399999999999999,-0.0021,0.013
1.0700267506687668,-0.0036,0.1766,-9.792399999999999,-0.0098,-0.0021999999999999997,0.013
1.080027000675017,0.0081,0.1778,-9.7819,-0.0093,-0.0024000000000000002,0.013
1.0900272506812672,0.0101,0.18469999999999998,-9.8,-0.009600000000000001,-0.0023,0.013
1.1000275006875173,-0.0018,0.1795,-9.7925,-0.009899999999999999,-0.0023,0.0131
1.1100277506937675,0.0059,0.17830000000000001,-9.796199999999999,-0.0105,-0.0024000000000000002,0.0131
1.1200280007000176,0.0076,0.1853,-9.792,-0.0103,-0.0025,0.0132
1.1300282507062678,0.0010999999999999998,0.17509999999999998,-9.7965,-0.0109,-0.0024000000000000002,0.0131
1.140028500712518,0.00030000000000000003,0.16199999999999998,-9.7932,-0.0106,-0.0025,0.0132
1.150028750718768,0.0041,0.1696,-9.7967,-0.0106,-0.0025,0.0131
1.1600290007250182,0.0021,0.1661,-9.7863,-0.009899999999999999,-0.0026,0.0132
1.1700292507312684,0.009399999999999999,0.1709,-9.7953,-0.009899999999999999,-0.0026,0.0131
1.1800295007375186,0.0062,0.1658,-9.7944,-0.01,-0.0025,0.0132
1.1900297507437687,0.01,0.169,-9.8063,-0.0105,-0.0026,0.0131
1.2000300007500189,0.001,0.1785,-9.7952,-0.0104,-0.0029,0.013300000000000001
1.210030250756269,0.005399999999999999,0.1814,-9.796199999999999,-0.010799999999999999,-0.0028,0.0132
1.2200305007625192,0.00019999999999999998,0.1621,-9.7918,-0.011,-0.0028,0.013300000000000001
1.2300307507687693,0.0082,0.1628,-9.7976,-0.011,-0.0028,0.013300000000000001
1.2400310007750195,0.0021,0.1685,-9.7928,-0.010799999999999999,-0.0028,0.0134
1.2500312507812696,0.017499999999999998,0.1671,-9.8055,-0.0109,-0.0026999999999999997,0.0134
1.2600315007875198,0.005399999999999999,0.1566,-9.8072,-0.0109,-0.0026999999999999997,0.0135
1.27003175079377,0.0092,0.1658,-9.805,-0.0109,-0.0026999999999999997,0.0135
1.28003200080002,0.0143,0.1771,-9.8137,-0.0113,-0.0026999999999999997,0.0136
1.2900322508062703,9.999999999999999e-05,0.1767,-9.803199999999999,-0.0114,-0.0028,0.0135
1.3000325008125204,0.0010999999999999998,0.1609,-9.793399999999998,-0.0118,-0.0029,0.0136
1.3100327508187706,0.0068,0.1474,-9.7946,-0.012,-0.003,0.0136
1.3200330008250207,0.0123,0.1539,-9.8037,-0.0117,-0.0029,0.013699999999999999
1.3300332508312709,0.0095,0.16269999999999998,-9.8104,-0.0114,-0.0029,0.0136
1.340033500837521,0.0112,0.1464,-9.802299999999999,-0.0121,-0.0031,0.0136
1.3500337508437712,0.0082,0.1381,-9.8017,-0.0119,-0.0033,0.013699999999999999
1.3600340008500214,0.0113,0.1599,-9.7968,-0.0118,-0.0031999999999999997,0.0138
1.3700342508562715,0.0157,0.1651,-9.799299999999999,-0.0115,-0.0029,0.0138
1.3800345008625217,-0.0005,0.1407,-9.7941,-0.0119,-0.003,0.0139
1.3900347508687718,0.0115,0.12919999999999998,-9.7971,-0.0118,-0.0031,0.013999999999999999
1.400035000875022,0.009399999999999999,0.1429,-9.8048,-0.0113,-0.0029,0.0139
1.4100352508812721,0.0097,0.145,-9.7995,-0.0109,-0.003,0.0139
1.4200355008875223,0.0125,0.122,-9.8003,-0.0106,-0.0031,0.0138
1.4300357508937724,0.0112,0.11950000000000001,-9.8043,-0.0103,-0.003,0.013999999999999999
1.4400360009000226,0.0166,0.1325,-9.812,-0.0098,-0.003,0.0138
1.4500362509062728,0.0093,0.14859999999999998,-9.804499999999999,-0.0092,-0.0031999999999999997,0.013999999999999999
1.460036500912523,0.0081,0.1313,-9.802,-0.0089,-0.0033,0.0139
1.470036750918773,0.0106,0.11449999999999999,-9.8057,-0.0083,-0.0031999999999999997,0.014100000000000001
1.4800370009250232,0.007499999999999999,0.134,-9.8066,-0.0078,-0.0033,0.014100000000000001
1.4900372509312734,0.0103,0.13949999999999999,-9.806199999999999,-0.0073999999999999995,-0.0034,0.0142
1.5000375009375235,0.017499999999999998,0.1243,-9.8011,-0.0068,-0.0034999999999999996,0.014100000000000001
1.5100377509437737,0.0213,0.11770000000000001,-9.8096,-0.0062,-0.0033,0.014100000000000001
1.5200380009500238,0.0118,0.1255,-9.8158,-0.006,-0.0031999999999999997,0.014100000000000001
1.530038250956274,0.0171,0.12739999999999999,-9.8127,-0.0055,-0.0031999999999999997,0.014100000000000001
1.5400385009625241,0.0116,0.1328,-9.8001,-0.0049,-0.0034,0.0142
1.5500387509687743,0.015899999999999997,0.13649999999999998,-9.803099999999999,-0.0049,-0.0031999999999999997,0.0143
1.5600390009750245,0.0104,0.13,-9.8041,-0.004699999999999999,-0.0031999999999999997,0.0143
1.5700392509812746,0.0106,0.1248,-9.804,-0.005,-0.0033,0.0144
1.5800395009875248,0.0104,0.12869999999999998,-9.7991,-0.004399999999999999,-0.0034999999999999996,0.0144
1.590039750993775,0.023299999999999998,0.1237,-9.812800000000001,-0.004399999999999999,-0.0034,0.0144
1.600040001000025,0.015899999999999997,0.10909999999999999,-9.8127,-0.0038,-0.0034,0.0144
1.6100402510062752,0.014799999999999999,0.1206,-9.811499999999999,-0.0033,-0.0034999999999999996,0.014499999999999999
1.6200405010125254,0.0219,0.1335,-9.8081,-0.0031,-0.0034999999999999996,0.0146
1.6300407510187755,0.0143,0.1268,-9.8036,-0.0025,-0.0034999999999999996,0.0144
1.6400410010250257,0.0115,0.1154,-9.8005,-0.0023,-0.0034,0.0146
1.6500412510312759,0.0172,0.1134,-9.807599999999999,-0.0018,-0.0034,0.0146
1.660041501037526,0.0165,0.1293,-9.806099999999999,-0.0012000000000000001,-0.0034,0.0147
1.6700417510437762,0.0177,0.1201,-9.8093,-0.0007999999999999999,-0.0034999999999999996,0.0146
1.6800420010500263,0.0194,0.11460000000000001,-9.8104,-0.00039999999999999996,-0.0034999999999999996,0.014799999999999999
1.6900422510562765,0.0241,0.12240000000000001,-9.8165,-0.00030000000000000003,-0.0034999999999999996,0.0147
1.7000425010625266,0.0228,0.12769999999999998,-9.812899999999999,-0.00019999999999999998,-0.0036,0.014899999999999998
1.7100427510687768,0.0157,0.13290000000000002,-9.8089,0.00039999999999999996,-0.0036,0.014899999999999998
1.720043001075027,0.0181,0.12359999999999999,-9.8105,0.00030000000000000003,-0.0034999999999999996,0.014899999999999998
1.730043251081277,0.013300000000000001,0.10959999999999999,-9.8048,0.00030000000000000003,-0.0036999999999999997,0.014899999999999998
1.7400435010875273,0.0186,0.11529999999999999,-9.811499999999999,0.0007999999999999999,-0.0036,0.014999999999999998
1.7500437510937774,0.0206,0.1307,-9.812999999999999,0.0015,-0.0034999999999999996,0.0151
1.7600440011000276,0.019200000000000002,0.12359999999999999,-9.8111,0.0014,-0.0036,0.014999999999999998
1.7700442511062777,0.0219,0.1119,-9.8086,0.0017,-0.0036999999999999997,0.0151
1.7800445011125279,0.024,0.1281,-9.8179,0.0023,-0.0036,0.0152
1.790044751118778,0.026099999999999998,0.1337,-9.818399999999999,0.0019,-0.0034999999999999996,0.0152
1.8000450011250282,0.0157,0.1166,-9.8102,0.0024000000000000002,-0.0036,0.0152
1.8100452511312783,0.0195,0.1217,-9.8125,0.0028,-0.0036,0.0154
1.8200455011375285,0.0195,0.1253,-9.815999999999999,0.0028,-0.0034999999999999996,0.015300000000000001
1.8300457511437787,0.0178,0.11479999999999999,-9.818200000000001,0.0026,-0.0034999999999999996,0.015300000000000001
1.8400460011500288,0.0232,0.12019999999999999,-9.822,0.0026,-0.0034,0.0154
1.850046251156279,0.0243,0.1208,-9.8252,0.0023,-0.0034,0.0152
1.8600465011625291,0.026899999999999997,0.1108,-9.833400000000001,0.0021,-0.0034,0.0152
1.8700467511687793,0.0203,0.11429999999999998,-9.832699999999999,0.0019,-0.0033,0.015300000000000001
1.8800470011750294,0.025500000000000002,0.133,-9.8181,0.0019,-0.0034,0.0155
1.8900472511812796,0.0163,0.1407,-9.8141,0.0019,-0.0036,0.0155
1.9000475011875297,0.0173,0.1247,-9.81,0.0013,-0.0036,0.0156
1.91004775119378,0.018699999999999998,0.1156,-9.8058,0.0012000000000000001,-0.0036,0.0156
1.9200480012000303,0.0215,0.1235,-9.8104,0.0017,-0.0036,0.0157
1.9300482512062804,0.025099999999999997,0.1221,-9.810099999999998,0.0021999999999999997,-0.0036999999999999997,0.0156
1.9400485012125306,0.0322,0.1163,-9.821,0.0023,-0.0034999999999999996,0.0156
1.9500487512187807,0.025500000000000002,0.1136,-9.818,0.0025,-0.0034,0.0154
1.960049001225031,0.028499999999999998,0.1164,-9.818200000000001,0.0023,-0.0033,0.0155
1.970049251231281,0.0219,0.1232,-9.811499999999999,0.0026,-0.0031999999999999997,0.0156
1.9800495012375312,0.0219,0.12069999999999999,-9.8137,0.003,-0.0031,0.0156
1.9900497512437814,0.02,0.1178,-9.8125,0.0031999999999999997,-0.0031999999999999997,0.015799999999999998
2.0000500012500315,0.0172,0.1262,-9.8124,0.0031999999999999997,-0.0033,0.015799999999999998
2.0100502512562817,0.021,0.1291,-9.81,0.0033,-0.0034999999999999996,0.015899999999999997
2.020050501262532,0.022699999999999998,0.12310000000000001,-9.811,0.0031,-0.0034999999999999996,0.015799999999999998
2.030050751268782,0.031599999999999996,0.10790000000000001,-9.8192,0.0029,-0.0034999999999999996,0.015799999999999998
2.040051001275032,0.0242,0.1122,-9.8288,0.0031999999999999997,-0.0034999999999999996,0.015799999999999998
2.0500512512812823,0.025300000000000003,0.11900000000000001,-9.8136,0.0036,-0.0036,0.0157
2.0600515012875324,0.0301,0.1235,-9.8156,0.0042,-0.0036,0.015899999999999997
2.0700517512937826,0.0226,0.1281,-9.809800000000001,0.004699999999999999,-0.0034999999999999996,0.015799999999999998
2.0800520013000328,0.026,0.12459999999999999,-9.8096,0.0045000000000000005,-0.0034,0.015899999999999997
2.090052251306283,0.0252,0.11950000000000001,-9.8159,0.0046,-0.0033,0.015899999999999997
2.100052501312533,0.0262,0.132,-9.8155,0.0048000000000000004,-0.0033,0.016
2.1100527513187832,0.027,0.1208,-9.8132,0.0045000000000000005,-0.0034,0.016
2.1200530013250334,0.0349,0.1165,-9.8273,0.0045000000000000005,-0.0033,0.0161
2.1300532513312835,0.026099999999999998,0.12069999999999999,-9.8204,0.0046,-0.0033,0.016
2.1400535013375337,0.0288,0.127,-9.8174,0.0046,-0.0034,0.0161
2.150053751343784,0.0279,0.1271,-9.8127,0.005,-0.0034,0.0161
2.160054001350034,0.0262,0.12049999999999998,-9.8163,0.005399999999999999,-0.0033,0.0161
2.170054251356284,0.025,0.1173,-9.8227,0.005399999999999999,-0.0033,0.0162
2.1800545013625343,0.0252,0.11460000000000001,-9.8275,0.0058,-0.0034,0.0161
2.1900547513687845,0.0276,0.12179999999999999,-9.8218,0.0062,-0.0034,0.0161
2.2000550013750346,0.0349,0.11180000000000001,-9.8226,0.0063,-0.0034,0.016
2.210055251381285,0.0326,0.1152,-9.8303,0.0068,-0.0031999999999999997,0.016
2.220055501387535,0.0328,0.117,-9.833400000000001,0.0067,-0.0029,0.016
2.230055751393785,0.030600000000000002,0.11549999999999999,-9.8326,0.0068,-0.0029,0.0161
2.2400560014000352,0.028200000000000003,0.1313,-9.8287,0.0069,-0.003,0.0162
2.2500562514062854,0.0241,0.1343,-9.8251,0.0065,-0.003,0.0162
2.2600565014125356,0.0265,0.1306,-9.8216,0.0056,-0.0031,0.0163
2.2700567514187857,0.0291,0.1334,-9.8212,0.0050999999999999995,-0.0031,0.0162
2.280057001425036,0.0277,0.1275,-9.8154,0.0046,-0.0031,0.0162
2.290057251431286,0.0299,0.1159,-9.8055,0.0050999999999999995,-0.0031999999999999997,0.0161
2.300057501437536,0.0358,0.11689999999999999,-9.8212,0.0058,-0.0031,0.0162
2.3100577514437863,0.0353,0.1238,-9.8284,0.0065,-0.003,0.0161
2.3200580014500365,0.0281,0.1298,-9.818999999999999,0.0066,-0.0029,0.016
2.3300582514562866,0.038400000000000004,0.1328,-9.8206,0.0065,-0.0029,0.0161
2.340058501462537,0.0301,0.12869999999999998,-9.818499999999998,0.0063999999999999994,-0.0028,0.015899999999999997
2.350058751468787,0.0292,0.1204,-9.8176,0.0060999999999999995,-0.0026,0.0162
2.360059001475037,0.0284,0.1235,-9.8178,0.0066,-0.0026,0.0162
2.3700592514812873,0.0262,0.1333,-9.814599999999999,0.0069,-0.0026999999999999997,0.0164
2.3800595014875374,0.028999999999999998,0.1315,-9.812800000000001,0.0072,-0.0028,0.0162
2.3900597514937876,0.0372,0.12329999999999999,-9.8207,0.0071,-0.0028,0.0163
2.4000600015000377,0.0348,0.1158,-9.8284,0.0072,-0.0026999999999999997,0.0162
2.410060251506288,0.0326,0.11900000000000001,-9.819899999999999,0.007499999999999999,-0.0029,0.0161
2.420060501512538,0.039,0.1338,-9.8216,0.008,-0.0029,0.0162
2.430060751518788,0.029300000000000003,0.1382,-9.8177,0.0084,-0.0028,0.0161
2.4400610015250384,0.0286,0.13470000000000001,-9.8119,0.0083,-0.0028,0.0162
2.4500612515312885,0.032299999999999995,0.1357,-9.8111,0.0085,-0.0028,0.0162
2.4600615015375387,0.029599999999999998,0.14029999999999998,-9.8121,0.0086,-0.0026,0.0162
2.470061751543789,0.0337,0.12739999999999999,-9.8132,0.0089,-0.0026,0.0162
2.480062001550039,0.0333,0.12789999999999999,-9.825000000000001,0.009000000000000001,-0.0025,0.0163
2.490062251556289,0.0392,0.13190000000000002,-9.8246,0.0089,-0.0025,0.0163
2.5000625015625393,0.0349,0.14049999999999999,-9.826500000000001,0.008799999999999999,-0.0026,0.0163
2.5100627515687894,0.0319,0.142,-9.8123,0.0087,-0.0026,0.0163
2.5200630015750396,0.029799999999999997,0.14400000000000002,-9.8087,0.0091,-0.0025,0.0163
2.5300632515812898,0.0333,0.1338,-9.811300000000001,0.009000000000000001,-0.0025,0.0163
2.54006350158754,0.028499999999999998,0.1356,-9.8195,0.0093,-0.0025,0.0163
2.55006375159379,0.0262,0.1389,-9.8231,0.0093,-0.0025,0.0163
2.56006400160004,0.0364,0.1389,-9.822,0.009600000000000001,-0.0026,0.0162
2.5700642516062904,0.0343,0.1382,-9.826500000000001,0.009600000000000001,-0.0026,0.0162
2.5800645016125405,0.034699999999999995,0.1304,-9.822,0.0098,-0.0024000000000000002,0.0162
2.5900647516187907,0.0426,0.1378,-9.825299999999999,0.0104,-0.0024000000000000002,0.0162
2.600065001625041,0.0378,0.1497,-9.8292,0.0103,-0.0021999999999999997,0.0162
2.610065251631291,0.031100000000000003,0.15460000000000002,-9.8234,0.009899999999999999,-0.0021,0.0163
2.620065501637541,0.0279,0.15560000000000002,-9.8217,0.0093,-0.0021,0.0163
2.6300657516437913,0.0313,0.142,-9.829699999999999,0.0084,-0.0021999999999999997,0.0163
2.6400660016500415,0.0265,0.1462,-9.8126,0.0084,-0.0023,0.0164
2.6500662516562916,0.0354,0.1507,-9.8123,0.0093,-0.0023,0.0164
2.6600665016625418,0.0343,0.148,-9.8154,0.0097,-0.0023,0.0164
2.670066751668792,0.0392,0.1451,-9.819799999999999,0.0098,-0.0021,0.0162
2.680067001675042,0.0399,0.1542,-9.8286,0.009399999999999999,-0.002,0.0162
2.6900672516812922,0.0382,0.1515,-9.8341,0.008799999999999999,-0.002,0.0162
2.7000675016875424,0.034999999999999996,0.1599,-9.8231,0.008799999999999999,-0.002,0.0163
2.7100677516937925,0.029799999999999997,0.1587,-9.8204,0.0087,-0.0019,0.0163
2.7200680017000427,0.0288,0.1565,-9.8112,0.0086,-0.0018,0.0165
2.730068251706293,0.0333,0.16590000000000002,-9.8088,0.0085,-0.0017,0.0165
2.740068501712543,0.0329,0.1644,-9.8183,0.0084,-0.0015999999999999999,0.0165
2.750068751718793,0.031,0.1636,-9.818399999999999,0.008,-0.0017,0.0165
2.7600690017250433,0.0445,0.156,-9.8376,0.0073999999999999995,-0.0015999999999999999,0.0165
2.7700692517312935,0.0304,0.1532,-9.826600000000001,0.0071,-0.0018,0.0164
2.7800695017375436,0.0371,0.1596,-9.8208,0.0072,-0.0019,0.0165
2.790069751743794,0.0391,0.172,-9.8187,0.0073999999999999995,-0.0015999999999999999,0.0165
2.800070001750044,0.026600000000000002,0.1604,-9.812999999999999,0.0076,-0.0014,0.0165
2.810070251756294,0.030600000000000002,0.1554,-9.8102,0.0077,-0.0015,0.0166
2.8200705017625443,0.034,0.1573,-9.8212,0.007899999999999999,-0.0015,0.0164
2.8300707517687944,0.0339,0.1568,-9.8206,0.008,-0.0015,0.0166
2.8400710017750446,0.0327,0.15610000000000002,-9.8163,0.0084,-0.0015999999999999999,0.0166
2.8500712517812947,0.0445,0.1629,-9.828899999999999,0.007899999999999999,-0.0014,0.0166
2.860071501787545,0.0314,0.1503,-9.8139,0.0073,-0.0014,0.0165
2.870071751793795,0.0348,0.15009999999999998,-9.802900000000001,0.0076,-0.0015,0.0166
2.880072001800045,0.0409,0.1658,-9.809099999999999,0.0082,-0.0013,0.0167
2.8900722518062953,0.0335,0.1647,-9.8143,0.0089,-0.0010999999999999998,0.0165
2.9000725018125455,0.0241,0.16299999999999998,-9.8072,0.0087,-0.0013,0.0167
2.9100727518187957,0.031799999999999995,0.16249999999999998,-9.812,0.0085,-0.0015,0.0165
2.920073001825046,0.037,0.16540000000000002,-9.8149,0.0083,-0.0013,0.0165
2.930073251831296,0.034499999999999996,0.1578,-9.8111,0.0083,-0.0013,0.0164
2.940073501837546,0.0385,0.1555,-9.812800000000001,0.0085,-0.0012000000000000001,0.0165
2.9500737518437963,0.0422,0.1567,-9.8202,0.008799999999999999,-0.0010999999999999998,0.0164
2.9600740018500464,0.031,0.1707,-9.809800000000001,0.0092,-0.0012000000000000001,0.0165
2.9700742518562966,0.0383,0.18439999999999998,-9.8181,0.0092,-0.0010999999999999998,0.0166
2.9800745018625467,0.0322,0.1752,-9.818,0.0091,-0.001,0.0165
2.990074751868797,0.0304,0.1693,-9.8163,0.0085,-0.0010999999999999998,0.0167
3.000075001875047,0.028200000000000003,0.1697,-9.8162,0.0083,-0.0012000000000000001,0.0165
3.010075251881297,0.0371,0.1699,-9.8191,0.0081,-0.0010999999999999998,0.0166
3.0200755018875474,0.0325,0.1703,-9.810599999999999,0.0085,-0.001,0.0166
3.0300757518937975,0.037899999999999996,0.1648,-9.817499999999999,0.0085,-0.0009,0.0164
3.0400760019000477,0.037599999999999995,0.1579,-9.8177,0.008799999999999999,-0.0007999999999999999,0.0164
3.050076251906298,0.0386,0.1663,-9.8261,0.0093,-0.0007,0.0163
3.060076501912548,0.0383,0.1664,-9.8335,0.0089,-0.0005,0.0163
3.070076751918798,0.028200000000000003,0.1664,-9.8249,0.009399999999999999,-0.0005,0.0164
3.0800770019250483,0.0317,0.178,-9.8227,0.0092,-0.0005,0.0164
3.0900772519312985,0.0334,0.1721,-9.827399999999999,0.0087,-0.00039999999999999996,0.0163
3.1000775019375486,0.030899999999999997,0.179,-9.8181,0.0081,-0.00030000000000000003,0.0163
3.1100777519437988,0.029799999999999997,0.18860000000000002,-9.8167,0.0076,-0.00039999999999999996,0.0164
3.120078001950049,0.04,0.18439999999999998,-9.8202,0.0068,-0.0005,0.0162
3.130078251956299,0.037399999999999996,0.17479999999999998,-9.8147,0.0062,-0.00039999999999999996,0.0163
3.1400785019625492,0.031599999999999996,0.1663,-9.8112,0.006,-0.0005,0.0162
3.1500787519687994,0.0416,0.1742,-9.812800000000001,0.0069,-0.00039999999999999996,0.0164
3.1600790019750495,0.036000000000000004,0.1939,-9.8173,0.007499999999999999,-0.0,0.0163
3.1700792519812997,0.030899999999999997,0.18810000000000002,-9.8193,0.0073,0.0,0.0161
3.18007950198755,0.0301,0.1801,-9.8163,0.0067,0.0,0.0162
3.1900797519938,0.0344,0.1838,-9.8174,0.0060999999999999995,0.00019999999999999998,0.016
3.20008000200005,0.031,0.183,-9.814599999999999,0.0058,0.00030000000000000003,0.0161
3.2100802520063003,0.0369,0.1764,-9.8144,0.0058,0.00039999999999999996,0.0161
3.2200805020125505,0.0327,0.1801,-9.809,0.006,0.00030000000000000003,0.0163
3.2300807520188006,0.0336,0.184,-9.8071,0.0062,0.00030000000000000003,0.0162
3.240081002025051,0.037399999999999996,0.1851,-9.8163,0.0062,0.00039999999999999996,0.0162
3.250081252031301,0.030600000000000002,0.1875,-9.8171,0.0062,0.00039999999999999996,0.0163
3.260081502037551,0.029300000000000003,0.18639999999999998,-9.8162,0.006,0.00030000000000000003,0.0161
3.2700817520438012,0.0241,0.18389999999999998,-9.809199999999999,0.005399999999999999,9.999999999999999e-05,0.0161
3.2800820020500514,0.0314,0.1872,-9.8048,0.0050999999999999995,0.00019999999999999998,0.016
3.2900822520563016,0.034699999999999995,0.192,-9.804499999999999,0.004699999999999999,0.0005,0.0161
3.3000825020625517,0.0335,0.1884,-9.803199999999999,0.0048000000000000004,0.0006000000000000001,0.016
3.310082752068802,0.0368,0.183,-9.8084,0.004699999999999999,0.0007,0.016
3.320083002075052,0.0351,0.17529999999999998,-9.8126,0.005,0.0007999999999999999,0.015899999999999997
3.330083252081302,0.0319,0.1785,-9.8188,0.0052,0.0009,0.016
3.3400835020875523,0.032,0.19469999999999998,-9.8221,0.0056,0.001,0.0162
3.3500837520938025,0.025599999999999998,0.2009,-9.8143,0.0053,0.0009,0.016
3.3600840021000526,0.022,0.1861,-9.8,0.0045000000000000005,0.0007,0.016
3.370084252106303,0.0314,0.18259999999999998,-9.8004,0.0046,0.0007,0.016
3.380084502112553,0.0324,0.18810000000000002,-9.8036,0.004699999999999999,0.001,0.015899999999999997
3.390084752118803,0.0283,0.1784,-9.8064,0.0049,0.0009,0.015799999999999998
3.4000850021250533,0.032299999999999995,0.1679,-9.810599999999999,0.005,0.0009,0.015799999999999998
3.4100852521313034,0.0314,0.1757,-9.8137,0.0055,0.0007999999999999999,0.0157
3.4200855021375536,0.0336,0.194,-9.8071,0.0056,0.0007999999999999999,0.0157
3.4300857521438037,0.0337,0.19669999999999999,-9.812999999999999,0.0057,0.0010999999999999998,0.015799999999999998
3.440086002150054,0.0241,0.1955,-9.8011,0.0059,0.0013,0.015799999999999998
3.450086252156304,0.027999999999999997,0.1984,-9.7987,0.005399999999999999,0.0012000000000000001,0.015899999999999997
3.460086502162554,0.029599999999999998,0.1965,-9.8082,0.0052,0.0013,0.015799999999999998
3.4700867521688044,0.024399999999999998,0.1926,-9.8033,0.0052,0.0014,0.015799999999999998
3.4800870021750545,0.0268,0.1855,-9.8,0.0053,0.0013,0.015799999999999998
3.4900872521813047,0.034699999999999995,0.1863,-9.8063,0.005399999999999999,0.0013,0.0157
3.500087502187555,0.029599999999999998,0.1827,-9.8108,0.0056,0.0015,0.0156
3.510087752193805,0.029300000000000003,0.18639999999999998,-9.804400000000001,0.006,0.0014,0.0156
3.520088002200055,0.0312,0.2036,-9.8074,0.0063,0.0014,0.0157
3.5300882522063053,0.0171,0.1993,-9.7997,0.0067,0.0014,0.0155
3.5400885022125554,0.0264,0.19449999999999998,-9.7994,0.0063999999999999994,0.0013,0.0157
3.5500887522188056,0.026099999999999998,0.19569999999999999,-9.808,0.0062,0.0014,0.0155
3.5600890022250558,0.0229,0.1998,-9.7967,0.0062,0.0014,0.0156
3.570089252231306,0.0276,0.1919,-9.789499999999999,0.0065,0.0014,0.0155
3.580089502237556,0.031799999999999995,0.18689999999999998,-9.8048,0.0066,0.0015999999999999999,0.0155
3.590089752243806,0.028200000000000003,0.1853,-9.8066,0.0067,0.0018,0.0155
3.6000900022500564,0.025300000000000003,0.199,-9.7991,0.0068,0.0017,0.0155
3.6100902522563065,0.029500000000000002,0.20309999999999997,-9.8005,0.0066,0.0017,0.0154
3.6200905022625567,0.0207,0.19369999999999998,-9.7941,0.0067,0.0018,0.015300000000000001
3.630090752268807,0.0226,0.19589999999999996,-9.7922,0.0063,0.0018,0.0154
3.640091002275057,0.0294,0.2066,-9.8018,0.0063999999999999994,0.0019,0.015300000000000001
3.650091252281307,0.019200000000000002,0.20509999999999998,-9.7933,0.006,0.0018,0.0152
3.6600915022875573,0.0268,0.1903,-9.797500000000001,0.0059,0.0017,0.0152
3.6700917522938075,0.029500000000000002,0.1981,-9.809800000000001,0.0063,0.0019,0.015300000000000001
3.6800920023000576,0.0301,0.20309999999999997,-9.8048,0.0065,0.0019,0.0151
3.6900922523063078,0.0215,0.1946,-9.7987,0.0066,0.0018,0.0152
3.700092502312558,0.0248,0.1991,-9.793399999999998,0.0071,0.0019,0.0152
3.710092752318808,0.0213,0.2101,-9.8004,0.0073999999999999995,0.0021,0.0151
3.7200930023250582,0.0193,0.21059999999999998,-9.792,0.0068,0.002,0.0152
3.7300932523313084,0.0257,0.20110000000000003,-9.7988,0.0068,0.0019,0.014999999999999998
3.7400935023375586,0.017499999999999998,0.21220000000000003,-9.7859,0.0067,0.002,0.0151
3.7500937523438087,0.0297,0.21350000000000002,-9.7955,0.0060999999999999995,0.0021,0.014899999999999998
3.760094002350059,0.0263,0.20609999999999998,-9.8051,0.0058,0.0023,0.014999999999999998
3.770094252356309,0.0202,0.2072,-9.8015,0.005399999999999999,0.0023,0.014899999999999998
3.780094502362559,0.0276,0.2157,-9.799900000000001,0.0050999999999999995,0.0023,0.014899999999999998
3.7900947523688093,0.0211,0.2265,-9.797500000000001,0.0049,0.0023,0.014999999999999998
3.8000950023750595,0.0156,0.219,-9.7911,0.004399999999999999,0.0023,0.014799999999999999
3.8100952523813096,0.0166,0.21320000000000003,-9.789100000000001,0.0036,0.0023,0.014999999999999998
3.82009550238756,0.018699999999999998,0.21589999999999998,-9.7972,0.0034999999999999996,0.0023,0.014899999999999998
3.83009575239381,0.019,0.2218,-9.7926,0.0033,0.0023,0.014899999999999998
3.8400960024000605,0.0242,0.21059999999999998,-9.7959,0.0029,0.0023,0.0147
3.8500962524063107,0.0235,0.20609999999999998,-9.8024,0.0029,0.0025,0.014799999999999999
3.860096502412561,0.0231,0.2104,-9.8006,0.0029,0.0025,0.0147
3.870096752418811,0.021599999999999998,0.21779999999999997,-9.7967,0.003,0.0025,0.014799999999999999
3.880097002425061,0.0168,0.2186,-9.7858,0.0031999999999999997,0.0025,0.0147
3.8900972524313113,0.0172,0.21619999999999998,-9.786999999999999,0.003,0.0026,0.0147
3.9000975024375615,0.0111,0.21280000000000002,-9.7867,0.0026999999999999997,0.0026,0.0147
3.9100977524438116,0.013300000000000001,0.2176,-9.7915,0.0023,0.0026,0.0147
3.920098002450062,0.0166,0.22330000000000003,-9.7914,0.0021,0.0026,0.0147
3.930098252456312,0.0243,0.2213,-9.7958,0.0015,0.0026,0.0146
3.940098502462562,0.0218,0.20470000000000002,-9.796100000000001,0.0012000000000000001,0.0026,0.014499999999999999
3.9500987524688123,0.0193,0.2001,-9.7937,0.0015,0.0026999999999999997,0.014499999999999999
3.9600990024750624,0.0242,0.215,-9.7898,0.0018,0.0029,0.014499999999999999
3.9700992524813126,0.0117,0.2082,-9.789,0.0021,0.003,0.0143
3.9800995024875627,0.0092,0.2012,-9.7839,0.0024000000000000002,0.0028,0.0144
3.990099752493813,0.0164,0.216,-9.7927,0.0021,0.0029,0.0142
4.000100002500063,0.0139,0.2272,-9.8004,0.001,0.0031,0.0142
4.010100252506313,0.012199999999999999,0.2183,-9.7848,0.00039999999999999996,0.0028,0.014100000000000001
4.020100502512563,0.026899999999999997,0.2042,-9.7882,-0.0,0.0026999999999999997,0.014100000000000001
4.0301007525188135,0.0143,0.2022,-9.7842,0.00030000000000000003,0.0028,0.0142
4.040101002525064,0.022,0.2124,-9.7883,0.0013,0.003,0.0142
4.050101252531314,0.0119,0.22560000000000002,-9.7806,0.0021999999999999997,0.003,0.0142
4.060101502537564,0.0118,0.2193,-9.7869,0.0021,0.003,0.013999999999999999
4.070101752543814,0.0106,0.2166,-9.786200000000001,0.0015,0.003,0.0139
4.080102002550064,0.012799999999999999,0.21389999999999998,-9.7932,0.0007999999999999999,0.0031,0.0138
4.090102252556314,0.012899999999999998,0.2166,-9.7883,0.0007999999999999999,0.003,0.013699999999999999
4.100102502562565,0.0163,0.21350000000000002,-9.7801,0.00039999999999999996,0.0031,0.013699999999999999
4.110102752568815,0.0165,0.2039,-9.784099999999999,0.0007,0.0031999999999999997,0.013699999999999999
4.120103002575065,0.0084,0.21519999999999997,-9.783999999999999,0.0012000000000000001,0.0031999999999999997,0.013699999999999999
4.130103252581315,0.0237,0.22999999999999998,-9.7911,0.0014,0.0031999999999999997,0.0138
4.140103502587565,-0.0025,0.22460000000000002,-9.786499999999998,0.0017,0.0033,0.013699999999999999
4.150103752593815,0.0086,0.2039,-9.783999999999999,0.0014,0.0031,0.0138
4.1601040026000655,0.0107,0.2144,-9.7919,0.0013,0.0031,0.0138
4.170104252606316,0.0042,0.22889999999999996,-9.7851,0.0010999999999999998,0.0031,0.013699999999999999
4.180104502612566,0.0147,0.2206,-9.772699999999999,0.0012000000000000001,0.0031,0.0135
4.190104752618816,0.013300000000000001,0.2105,-9.774099999999999,0.001,0.0033,0.0134
4.200105002625066,0.0116,0.20579999999999998,-9.782599999999999,0.0010999999999999998,0.0034999999999999996,0.0134
4.210105252631316,0.0116,0.2206,-9.795399999999999,0.0015,0.0034999999999999996,0.0134
4.2201055026375665,0.0087,0.22599999999999998,-9.794500000000001,0.0017,0.0034,0.0134
4.230105752643817,0.0039,0.22290000000000001,-9.7854,0.0018,0.0033,0.0134
4.240106002650067,0.0042,0.2238,-9.7752,0.0014,0.0033,0.013300000000000001
4.250106252656317,0.0078,0.22690000000000002,-9.7781,0.0007,0.0034,0.0134
4.260106502662567,0.0062,0.2251,-9.7751,0.0007,0.0034999999999999996,0.013300000000000001
4.270106752668817,0.0060999999999999995,0.2197,-9.7767,9.999999999999999e-05,0.0034999999999999996,0.0132
4.280107002675067,0.0125,0.20699999999999996,-9.7888,-0.00019999999999999998,0.0034999999999999996,0.0131
4.2901072526813175,0.0024000000000000002,0.2134,-9.7849,-0.00019999999999999998,0.0034,0.0131
4.300107502687568,0.013,0.22,-9.7864,-9.999999999999999e-05,0.0033,0.013
4.310107752693818,0.0036,0.2197,-9.7763,0.00039999999999999996,0.0034,0.012899999999999998
4.320108002700068,-0.003,0.2053,-9.7663,0.00039999999999999996,0.0034,0.012899999999999998
4.330108252706318,0.004,0.21059999999999998,-9.771799999999999,0.0007999999999999999,0.0034999999999999996,0.012899999999999998
4.340108502712568,0.0009,0.2248,-9.7737,0.001,0.0036,0.012799999999999999
4.3501087527188185,0.01,0.2238,-9.7747,0.0010999999999999998,0.0034999999999999996,0.0127
4.360109002725069,0.0066,0.21180000000000002,-9.7748,0.0007,0.0034,0.0126
4.370109252731319,0.0083,0.2112,-9.7847,0.0007,0.0036,0.0126
4.380109502737569,0.004,0.22590000000000002,-9.7882,0.0007999999999999999,0.0036999999999999997,0.0126
4.390109752743819,0.0072,0.22690000000000002,-9.7779,0.0007999999999999999,0.0036,0.0126
4.400110002750069,-0.0049,0.216,-9.7764,0.001,0.0036,0.0125
4.410110252756319,-0.0034,0.21619999999999998,-9.7691,0.0010999999999999998,0.0036,0.0125
4.42011050276257,0.0031999999999999997,0.22729999999999997,-9.774,0.0006000000000000001,0.0036999999999999997,0.0124
4.43011075276882,-0.0042,0.222,-9.7725,0.0007,0.0034999999999999996,0.0123
4.44011100277507,0.011,0.21879999999999997,-9.7799,0.0005,0.0034999999999999996,0.012199999999999999
4.45011125278132,0.0006000000000000001,0.215,-9.7798,9.999999999999999e-05,0.0036,0.0121
4.46011150278757,0.009399999999999999,0.2197,-9.786999999999999,0.00030000000000000003,0.0036,0.0121
4.47011175279382,0.0049,0.23099999999999998,-9.7867,0.0006000000000000001,0.0036999999999999997,0.012199999999999999
4.4801120028000705,-0.0116,0.2287,-9.7775,0.0007999999999999999,0.0036999999999999997,0.012
4.490112252806321,-0.0031999999999999997,0.2203,-9.769799999999998,0.0006000000000000001,0.0036999999999999997,0.0121
4.500112502812571,0.0028,0.2231,-9.7767,0.0005,0.0038,0.0121
4.510112752818821,-0.006,0.22899999999999998,-9.7695,0.0005,0.0038,0.012
4.520113002825071,0.0025,0.2231,-9.7737,9.999999999999999e-05,0.0038,0.0119
4.530113252831321,0.0026,0.2193,-9.7792,9.999999999999999e-05,0.0038,0.0118
4.540113502837571,0.0017,0.22499999999999998,-9.7858,-0.0005,0.0039,0.0118
4.550113752843822,0.001,0.2376,-9.7856,-0.00039999999999999996,0.0038,0.0118
4.560114002850072,-0.0097,0.2369,-9.7735,-0.00039999999999999996,0.0036999999999999997,0.0116
4.570114252856322,-0.0058,0.2191,-9.7691,-0.0007,0.0036999999999999997,0.0117
4.580114502862572,-0.0083,0.21549999999999997,-9.770199999999999,-0.0007,0.0038,0.0116
4.590114752868822,-0.0036,0.2312,-9.7715,-0.0007999999999999999,0.0039,0.0116
4.600115002875072,-0.0039,0.2262,-9.7697,-0.0009,0.0038,0.0115
4.6101152528813225,-0.0018,0.2208,-9.772400000000001,-0.0013,0.0039,0.0115
4.620115502887573,0.0009,0.2291,-9.784099999999999,-0.0015,0.004,0.0114
4.630115752893823,-0.0036,0.22959999999999997,-9.7829,-0.002,0.004,0.0114
4.640116002900073,-0.007499999999999999,0.2298,-9.772699999999999,-0.0014,0.0039,0.0114
4.650116252906323,-0.0072,0.2278,-9.7711,-0.0014,0.0041,0.0113
4.660116502912573,-0.0092,0.21810000000000002,-9.7743,-0.0014,0.0042,0.0113
4.670116752918823,-0.010799999999999999,0.22560000000000002,-9.7755,-0.0013,0.0042,0.0113
4.680117002925074,-0.0041,0.23199999999999998,-9.772699999999999,-0.001,0.004,0.0111
4.690117252931324,-0.0101,0.2211,-9.7609,-0.0010999999999999998,0.0038,0.0111
4.700117502937574,-0.003,0.2224,-9.758999999999999,-0.00019999999999999998,0.0038,0.0111
4.710117752943824,-0.0,0.2376,-9.7768,-9.999999999999999e-05,0.004,0.0111
4.720118002950074,-0.0062,0.2512,-9.7797,0.0,0.0041,0.0112
4.730118252956324,-0.014499999999999999,0.246,-9.7748,-0.0007999999999999999,0.004,0.0109
4.7401185029625745,-0.0098,0.21549999999999997,-9.779300000000001,-0.002,0.004,0.0109
4.750118752968825,-0.0078,0.21389999999999998,-9.779,-0.002,0.0042,0.0109
4.760119002975075,-0.009000000000000001,0.2365,-9.7677,-0.0014,0.0042,0.011
4.770119252981325,-0.0104,0.2402,-9.7622,-0.0015,0.0042,0.0109
4.780119502987575,-0.0046,0.2416,-9.7645,-0.0018,0.0042,0.0109
4.790119752993825,-0.0112,0.2602,-9.7667,-0.003,0.0042,0.0109
4.8001200030000755,-0.0068,0.2633,-9.771,-0.004399999999999999,0.004,0.0109
4.810120253006326,-0.018000000000000002,0.2461,-9.7686,-0.0056,0.0038,0.0107
4.820120503012576,-0.015300000000000001,0.22330000000000003,-9.764299999999999,-0.0065,0.0038,0.010799999999999999
4.830120753018826,-0.011,0.2288,-9.7653,-0.0068,0.0038,0.010799999999999999
4.840121003025076,-0.0127,0.2395,-9.76,-0.0068,0.0038,0.0107
4.850121253031326,-0.0078,0.23979999999999999,-9.753499999999999,-0.0072,0.0038,0.0106
4.860121503037576,-0.0121,0.22590000000000002,-9.7567,-0.0077,0.004,0.0106
4.8701217530438266,-0.0092,0.2295,-9.7701,-0.008,0.0042,0.0106
4.880122003050077,-0.0073,0.23640000000000003,-9.7776,-0.0085,0.0042,0.0107
4.890122253056327,-0.022699999999999998,0.2294,-9.7734,-0.0085,0.004,0.0105
4.900122503062577,-0.0154,0.2238,-9.7632,-0.0089,0.004,0.0107
4.910122753068827,-0.0115,0.23379999999999998,-9.7652,-0.0091,0.0041,0.0106
4.920123003075077,-0.0237,0.24139999999999998,-9.762,-0.0095,0.004,0.0106
4.9301232530813275,-0.0105,0.2274,-9.7594,-0.0097,0.0038,0.0105
4.940123503087578,-0.0156,0.22469999999999998,-9.7696,-0.01,0.0038,0.0105
4.950123753093828,-0.0106,0.2224,-9.7722,-0.0105,0.0038,0.0103
4.960124003100078,-0.0092,0.2339,-9.777,-0.0106,0.0036999999999999997,0.0105
4.970124253106328,-0.027099999999999996,0.23379999999999998,-9.7654,-0.0107,0.0036,0.010199999999999999
4.980124503112578,-0.014100000000000001,0.2254,-9.7593,-0.0114,0.0036,0.0104
4.990124753118828,-0.0178,0.2197,-9.7609,-0.0116,0.0038,0.010199999999999999
5.000125003125079,-0.0164,0.23099999999999998,-9.7591,-0.0113,0.0038,0.0104
5.010125253131329,-0.0163,0.22460000000000002,-9.7461,-0.011,0.0036,0.0104
5.020125503137579,-0.0115,0.2193,-9.758999999999999,-0.0106,0.0038,0.0105
5.030125753143829,-0.012899999999999998,0.2222,-9.770299999999999,-0.0106,0.004,0.0104
5.040126003150079,-0.0174,0.2326,-9.7635,-0.0101,0.0036999999999999997,0.0106
5.050126253156329,-0.0252,0.22859999999999997,-9.7492,-0.009399999999999999,0.0034,0.0104
5.0601265031625795,-0.0181,0.2065,-9.7529,-0.009000000000000001,0.0034999999999999996,0.0105
5.07012675316883,-0.0186,0.208,-9.7554,-0.0084,0.0036999999999999997,0.0104
5.08012700317508,-0.025099999999999997,0.22669999999999998,-9.7483,-0.0076,0.0034999999999999996,0.0104
5.09012725318133,-0.004,0.2234,-9.7747,-0.007899999999999999,0.0034999999999999996,0.010199999999999999
5.10012750318758,-0.028999999999999998,0.2019,-9.767299999999999,-0.0083,0.0036,0.010199999999999999
5.11012775319383,-0.0142,0.21080000000000002,-9.7731,-0.0084,0.0034999999999999996,0.0103
5.12012800320008,-0.0166,0.2232,-9.7723,-0.0081,0.0034,0.0104
5.130128253206331,-0.0265,0.2208,-9.7606,-0.0073,0.0033,0.0104
5.140128503212581,-0.0259,0.21589999999999998,-9.745800000000001,-0.0071,0.0031999999999999997,0.0106
5.150128753218831,-0.0183,0.2176,-9.755700000000001,-0.0071,0.0031999999999999997,0.0106
5.160129003225081,-0.021,0.216,-9.7541,-0.0069,0.0031999999999999997,0.0104
5.170129253231331,-0.013,0.20679999999999998,-9.7695,-0.0069,0.0031999999999999997,0.0104
5.180129503237581,-0.022699999999999998,0.1853,-9.7611,-0.0063999999999999994,0.0031999999999999997,0.010199999999999999
5.1901297532438315,-0.0121,0.1915,-9.7704,-0.0059,0.0033,0.0103
5.200130003250082,-0.0173,0.20879999999999999,-9.767000000000001,-0.0049,0.0031999999999999997,0.010199999999999999
5.210130253256332,-0.0302,0.2203,-9.757299999999999,-0.0041,0.0031,0.0101
5.220130503262582,-0.024499999999999997,0.21779999999999997,-9.7477,-0.0042,0.0031999999999999997,0.0103
5.230130753268832,-0.0228,0.2124,-9.7547,-0.004399999999999999,0.0031999999999999997,0.010199999999999999
5.240131003275082,-0.0279,0.2147,-9.7608,-0.0043,0.0031,0.0104
5.2501312532813325,-0.0166,0.2112,-9.768,-0.004399999999999999,0.003,0.0103
5.260131503287583,-0.0165,0.20609999999999998,-9.7719,-0.0048000000000000004,0.0029,0.0103
5.270131753293833,-0.0242,0.20509999999999998,-9.7613,-0.005,0.0029,0.010199999999999999
5.280132003300083,-0.0179,0.2231,-9.7647,-0.004699999999999999,0.0028,0.0103
5.290132253306333,-0.0338,0.2278,-9.7524,-0.0048000000000000004,0.0028,0.010199999999999999
5.300132503312583,-0.0242,0.2105,-9.742,-0.005,0.0026999999999999997,0.010199999999999999
5.310132753318833,-0.0299,0.214,-9.7496,-0.0050999999999999995,0.0026999999999999997,0.010199999999999999
5.3201330033250835,-0.0242,0.2232,-9.7578,-0.0052,0.0026999999999999997,0.010199999999999999
5.330133253331334,-0.021699999999999997,0.22139999999999999,-9.764899999999999,-0.0059,0.0026999999999999997,0.010199999999999999
5.340133503337584,-0.0225,0.21180000000000002,-9.7636,-0.0063,0.0026,0.010199999999999999
5.350133753343834,-0.0222,0.21389999999999998,-9.7627,-0.0068,0.0026,0.010199999999999999
5.360134003350084,-0.0221,0.2275,-9.7621,-0.0071,0.0026,0.0103
5.370134253356334,-0.0275,0.2288,-9.7558,-0.0073,0.0026,0.010199999999999999
5.3801345033625845,-0.0366,0.20769999999999997,-9.7474,-0.0078,0.0025,0.0103
5.390134753368835,-0.0299,0.2023,-9.7579,-0.007899999999999999,0.0024000000000000002,0.0104
5.400135003375085,-0.027399999999999997,0.21810000000000002,-9.750300000000001,-0.007899999999999999,0.0024000000000000002,0.0104
5.410135253381335,-0.0294,0.208,-9.7605,-0.0076,0.0021999999999999997,0.0103
5.420135503387585,-0.0212,0.2,-9.7647,-0.0078,0.0021999999999999997,0.0103
5.430135753393835,-0.0246,0.19970000000000002,-9.7669,-0.008,0.0021999999999999997,0.0101
5.440136003400085,-0.0201,0.2066,-9.7706,-0.008,0.0021999999999999997,0.010199999999999999
5.450136253406336,-0.0346,0.21389999999999998,-9.7569,-0.008,0.002,0.01
5.460136503412586,-0.0327,0.1888,-9.743599999999999,-0.007899999999999999,0.0019,0.010199999999999999
5.470136753418836,-0.026699999999999998,0.193,-9.7519,-0.0072,0.002,0.010199999999999999
5.480137003425086,-0.0263,0.21679999999999996,-9.7568,-0.0073999999999999995,0.0021999999999999997,0.0103
5.490137253431336,-0.0322,0.2033,-9.762899999999998,-0.0078,0.0021,0.0101
5.500137503437586,-0.027399999999999997,0.1897,-9.758899999999999,-0.0076,0.0018,0.010199999999999999
5.5101377534438365,-0.022699999999999998,0.201,-9.7676,-0.007899999999999999,0.0018,0.0101
5.520138003450087,-0.0247,0.20070000000000002,-9.764000000000001,-0.007899999999999999,0.0018,0.0101
5.530138253456337,-0.030699999999999998,0.20149999999999998,-9.7648,-0.007499999999999999,0.0018,0.01
5.540138503462587,-0.0399,0.1965,-9.749099999999999,-0.0072,0.0017,0.0101
5.550138753468837,-0.0288,0.19949999999999998,-9.7453,-0.0065,0.0015,0.01
5.560139003475087,-0.0291,0.20400000000000001,-9.7559,-0.0059,0.0015999999999999999,0.01
5.570139253481337,-0.026699999999999998,0.2049,-9.7593,-0.0057,0.0015999999999999999,0.01
5.580139503487588,-0.0334,0.20669999999999997,-9.755700000000001,-0.0055,0.0014,0.0101
5.590139753493838,-0.022,0.2082,-9.7714,-0.0060999999999999995,0.0014,0.0101
5.600140003500088,-0.0219,0.2186,-9.7695,-0.0065,0.0014,0.010199999999999999
5.610140253506338,-0.0361,0.2056,-9.7625,-0.0073,0.0014,0.009899999999999999
5.620140503512588,-0.035199999999999995,0.18309999999999998,-9.7509,-0.0073999999999999995,0.0013,0.0101
5.630140753518838,-0.0304,0.1875,-9.7552,-0.0067,0.0014,0.0101
5.6401410035250885,-0.030600000000000002,0.2095,-9.7569,-0.0062,0.0014,0.010199999999999999
5.650141253531339,-0.0308,0.20809999999999998,-9.7554,-0.0063999999999999994,0.0012000000000000001,0.0101
5.660141503537589,-0.029599999999999998,0.20179999999999998,-9.7636,-0.0066,0.001,0.0103
5.670141753543839,-0.0265,0.2094,-9.765,-0.0073999999999999995,0.001,0.0101
5.680142003550089,-0.0281,0.2096,-9.7623,-0.0077,0.0009,0.0103
5.690142253556339,-0.0337,0.1983,-9.7654,-0.007899999999999999,0.0009,0.0101
5.7001425035625894,-0.0308,0.1763,-9.7579,-0.007499999999999999,0.0009,0.010199999999999999
5.71014275356884,-0.036699999999999997,0.1888,-9.7541,-0.0068,0.0009,0.010199999999999999
5.72014300357509,-0.028999999999999998,0.20370000000000002,-9.7524,-0.0063999999999999994,0.0007,0.010199999999999999
5.73014325358134,-0.0212,0.19729999999999998,-9.7627,-0.0063999999999999994,0.0007999999999999999,0.0101
5.74014350358759,-0.034499999999999996,0.18359999999999999,-9.7626,-0.0063,0.0009,0.0101
5.75014375359384,-0.028200000000000003,0.1934,-9.7682,-0.0068,0.0007,0.010199999999999999
5.76014400360009,-0.028499999999999998,0.2049,-9.7654,-0.0066,0.0006000000000000001,0.0103
5.7701442536063405,-0.0377,0.20179999999999998,-9.7592,-0.0067,0.0005,0.010199999999999999
5.780144503612591,-0.033100000000000004,0.18439999999999998,-9.7558,-0.0069,0.00039999999999999996,0.0103
5.790144753618841,-0.0324,0.18289999999999998,-9.7522,-0.0065,0.00039999999999999996,0.010199999999999999
5.800145003625091,-0.0314,0.1916,-9.754,-0.0058,0.00039999999999999996,0.0103
5.810145253631341,-0.025500000000000002,0.18639999999999998,-9.7669,-0.0057,0.00039999999999999996,0.010199999999999999
5.820145503637591,-0.0312,0.1832,-9.771199999999999,-0.0056,0.00030000000000000003,0.010199999999999999
5.8301457536438415,-0.0265,0.19419999999999998,-9.7729,-0.0059,0.00030000000000000003,0.010199999999999999
5.840146003650092,-0.030699999999999998,0.2085,-9.7642,-0.0058,9.999999999999999e-05,0.010199999999999999
5.850146253656342,-0.033,0.20079999999999998,-9.7582,-0.0063,9.999999999999999e-05,0.010199999999999999
5.860146503662592,-0.0343,0.1812,-9.7596,-0.0063999999999999994,0.00019999999999999998,0.0103
5.870146753668842,-0.0356,0.1865,-9.7601,-0.0062,9.999999999999999e-05,0.010199999999999999
5.880147003675092,-0.027099999999999996,0.19569999999999999,-9.764299999999999,-0.006,0.0,0.0103
5.890147253681342,-0.0302,0.1856,-9.758899999999999,-0.005399999999999999,-0.00030000000000000003,0.0103
5.9001475036875926,-0.027999999999999997,0.19090000000000001,-9.7594,-0.0049,-0.00030000000000000003,0.0104
5.910147753693843,-0.026699999999999998,0.1992,-9.770299999999999,-0.005399999999999999,-9.999999999999999e-05,0.0104
5.920148003700093,-0.0292,0.2065,-9.769799999999998,-0.0052,-0.00019999999999999998,0.0103
5.930148253706343,-0.0349,0.1914,-9.7668,-0.0063999999999999994,-0.00030000000000000003,0.0103
5.940148503712593,-0.029300000000000003,0.1656,-9.765600000000001,-0.0063999999999999994,-0.00030000000000000003,0.0103
5.950148753718843,-0.0355,0.1803,-9.7645,-0.006,-0.00030000000000000003,0.0103
5.9601490037250935,-0.0248,0.192,-9.764299999999999,-0.005399999999999999,-0.00039999999999999996,0.0104
5.970149253731344,-0.0275,0.1879,-9.7704,-0.005399999999999999,-0.00039999999999999996,0.0103
5.980149503737594,-0.0361,0.1906,-9.7617,-0.005399999999999999,-0.0005,0.0104
5.990149753743844,-0.021699999999999997,0.1993,-9.7713,-0.0060999999999999995,-0.0005,0.0105
6.000150003750094,-0.0337,0.1944,-9.771199999999999,-0.0058,-0.0006000000000000001,0.0104
6.010150253756344,-0.0366,0.17509999999999998,-9.7621,-0.0063,-0.0007,0.0104
6.020150503762594,-0.024499999999999997,0.16319999999999998,-9.7713,-0.0059,-0.0007,0.0104
6.030150753768845,-0.036000000000000004,0.178,-9.7669,-0.0052,-0.0007999999999999999,0.0104
6.040151003775095,-0.027399999999999997,0.18519999999999998,-9.757,-0.0046,-0.0009,0.0103
6.050151253781345,-0.0232,0.1815,-9.7707,-0.0046,-0.0009,0.0103
6.060151503787595,-0.031799999999999995,0.1742,-9.7602,-0.0043,-0.0009,0.0103
6.070151753793845,-0.0277,0.1899,-9.7744,-0.0041,-0.0009,0.0104
6.080152003800095,-0.035199999999999995,0.1982,-9.775699999999999,-0.0042,-0.001,0.0104
6.0901522538063455,-0.0272,0.1925,-9.7697,-0.004699999999999999,-0.0010999999999999998,0.0104
6.100152503812596,-0.0305,0.1799,-9.766399999999999,-0.005,-0.0012000000000000001,0.0105
6.110152753818846,-0.0315,0.1797,-9.764399999999998,-0.0049,-0.0012000000000000001,0.0104
6.120153003825096,-0.0279,0.17750000000000002,-9.762,-0.004699999999999999,-0.0010999999999999998,0.0104
6.130153253831346,-0.022699999999999998,0.17099999999999999,-9.782399999999999,-0.004399999999999999,-0.001,0.0104
6.140153503837596,-0.035199999999999995,0.1685,-9.771199999999999,-0.0038,-0.0012000000000000001,0.0104
6.150153753843846,-0.015799999999999998,0.19519999999999998,-9.782399999999999,-0.0038,-0.0014,0.0106
6.160154003850097,-0.040499999999999994,0.2003,-9.770199999999999,-0.0036999999999999997,-0.0015999999999999999,0.0103
6.170154253856347,-0.0248,0.18569999999999998,-9.763,-0.004399999999999999,-0.0015999999999999999,0.0105
6.180154503862597,-0.030699999999999998,0.1708,-9.7674,-0.0045000000000000005,-0.0015999999999999999,0.0104
6.190154753868847,-0.0301,0.17329999999999998,-9.7705,-0.0042,-0.0015999999999999999,0.0105
6.200155003875097,-0.0203,0.17880000000000001,-9.7675,-0.0041,-0.0015999999999999999,0.0104
6.210155253881347,-0.0218,0.17329999999999998,-9.7904,-0.0042,-0.0015,0.0105
6.2201555038875975,-0.0364,0.17459999999999998,-9.7701,-0.0039,-0.0017,0.0104
6.230155753893848,-0.0125,0.1969,-9.7794,-0.0042,-0.0017,0.0107
6.240156003900098,-0.038,0.18910000000000002,-9.772599999999999,-0.0043,-0.0017,0.0105
6.250156253906348,-0.0273,0.17329999999999998,-9.7676,-0.0045000000000000005,-0.0017,0.0107
6.260156503912598,-0.0275,0.1717,-9.772599999999999,-0.0046,-0.0018,0.0106
6.270156753918848,-0.0276,0.1779,-9.777800000000001,-0.0043,-0.0019,0.0105
6.2801570039250985,-0.0279,0.1813,-9.7706,-0.0042,-0.0019,0.0105
6.290157253931349,-0.0219,0.1726,-9.781099999999999,-0.0045000000000000005,-0.002,0.0105
6.300157503937599,-0.0268,0.1779,-9.7858,-0.0045000000000000005,-0.0021,0.0105
6.310157753943849,-0.0222,0.18689999999999998,-9.7791,-0.0048000000000000004,-0.0021,0.0106
6.320158003950099,-0.025300000000000003,0.1848,-9.7784,-0.004699999999999999,-0.0021999999999999997,0.0105
6.330158253956349,-0.026600000000000002,0.17529999999999998,-9.7685,-0.0049,-0.0021999999999999997,0.0106
6.340158503962599,-0.0252,0.17309999999999998,-9.7721,-0.0050999999999999995,-0.0021,0.0107
6.3501587539688495,-0.027099999999999996,0.1796,-9.779599999999999,-0.0052,-0.0021,0.0107
6.3601590039751,-0.025099999999999997,0.181,-9.7797,-0.005399999999999999,-0.0021999999999999997,0.0106
6.37015925398135,-0.021599999999999998,0.172,-9.7827,-0.0056,-0.0023,0.0106
6.3801595039876,-0.0222,0.174,-9.7743,-0.005399999999999999,-0.0024000000000000002,0.0107
6.39015975399385,-0.0166,0.1785,-9.7828,-0.004699999999999999,-0.0024000000000000002,0.010799999999999999
6.4001600040001,-0.0257,0.1982,-9.7799,-0.004,-0.0023,0.0109
6.4101602540063505,-0.0254,0.1853,-9.7759,-0.004399999999999999,-0.0025,0.010799999999999999
6.420160504012601,-0.029500000000000002,0.1648,-9.7713,-0.0042,-0.0026999999999999997,0.0109
6.430160754018851,-0.0254,0.17179999999999998,-9.7765,-0.0036999999999999997,-0.0026999999999999997,0.010799999999999999
6.440161004025101,-0.0201,0.1833,-9.78,-0.0031,-0.0026,0.0109
6.450161254031351,-0.0239,0.1588,-9.7706,-0.0028,-0.0028,0.0107
6.460161504037601,-0.0206,0.15560000000000002,-9.7749,-0.002,-0.003,0.0109
6.470161754043851,-0.0154,0.1894,-9.7889,-0.0024000000000000002,-0.0026999999999999997,0.011
6.480162004050102,-0.0243,0.1904,-9.791,-0.0024000000000000002,-0.0026,0.0109
6.490162254056352,-0.0321,0.17129999999999998,-9.7836,-0.003,-0.0028,0.0111
6.500162504062602,-0.020900000000000002,0.1641,-9.785499999999999,-0.0026999999999999997,-0.0029,0.0111
6.510162754068852,-0.0213,0.1906,-9.7886,-0.0025,-0.0026999999999999997,0.0113
6.520163004075102,-0.0242,0.19419999999999998,-9.7799,-0.0021,-0.0028,0.0114
6.530163254081352,-0.017499999999999998,0.1885,-9.778599999999999,-0.0024000000000000002,-0.0031,0.0114
6.5401635040876025,-0.0193,0.18,-9.7847,-0.003,-0.003,0.0113
6.550163754093853,-0.020399999999999998,0.1813,-9.7896,-0.0033,-0.003,0.0114
6.560164004100103,-0.0215,0.1837,-9.790600000000001,-0.0031999999999999997,-0.0031999999999999997,0.0113
6.570164254106353,-0.024,0.1693,-9.789100000000001,-0.0034,-0.0033,0.0114
6.580164504112603,-0.0163,0.17429999999999998,-9.790899999999999,-0.0028,-0.0031,0.0114
6.590164754118853,-0.0215,0.1856,-9.785499999999999,-0.0031,-0.0033,0.0114
6.600165004125103,-0.0225,0.17309999999999998,-9.7654,-0.0031,-0.0034999999999999996,0.0115
6.610165254131354,-0.008,0.1685,-9.7777,-0.0029,-0.0031999999999999997,0.0117
6.620165504137604,-0.0084,0.1771,-9.797,-0.0031999999999999997,-0.0029,0.0117
6.630165754143854,-0.0288,0.17279999999999998,-9.7968,-0.0036999999999999997,-0.0031,0.0118
6.640166004150104,-0.023299999999999998,0.1756,-9.789,-0.0031999999999999997,-0.0034999999999999996,0.012
6.650166254156354,-0.0106,0.18289999999999998,-9.7889,-0.0031,-0.0034,0.0119
6.660166504162604,-0.02,0.1714,-9.7835,-0.0031,-0.0034,0.0119
6.6701667541688545,-0.021599999999999998,0.1583,-9.7788,-0.0029,-0.0034,0.0119
6.680167004175105,-0.0115,0.1638,-9.7803,-0.002,-0.0034999999999999996,0.012
6.690167254181355,-0.01,0.1726,-9.7942,-0.002,-0.0034,0.0119
6.700167504187605,-0.0177,0.1629,-9.797500000000001,-0.0018,-0.0034999999999999996,0.0119
6.710167754193855,-0.0163,0.1745,-9.7998,-0.0019,-0.0036999999999999997,0.0121
6.720168004200105,-0.0162,0.18910000000000002,-9.7882,-0.0018,-0.0038,0.0121
6.7301682542063554,-0.015799999999999998,0.1876,-9.7883,-0.0024000000000000002,-0.0036999999999999997,0.012199999999999999
6.740168504212606,-0.0174,0.1666,-9.7858,-0.0026999999999999997,-0.0036999999999999997,0.0123
6.750168754218856,-0.0111,0.1686,-9.7919,-0.0026999999999999997,-0.0036,0.0124
6.760169004225106,-0.0185,0.1754,-9.7875,-0.0026999999999999997,-0.0036999999999999997,0.0124
6.770169254231356,-0.0106,0.1706,-9.7902,-0.0028,-0.0038,0.0124
6.780169504237606,-0.0065,0.1647,-9.8055,-0.0029,-0.0036,0.0124
6.790169754243856,-0.0154,0.1702,-9.8013,-0.0031,-0.0036999999999999997,0.0125
6.8001700042501065,-0.0107,0.18439999999999998,-9.793,-0.0033,-0.0039,0.0125
6.810170254256357,-0.014999999999999998,0.1759,-9.7907,-0.0034,-0.0039,0.0124
6.820170504262607,-0.0168,0.1599,-9.7875,-0.0034,-0.0038,0.0126
6.830170754268857,-0.0114,0.1643,-9.7965,-0.0031999999999999997,-0.0038,0.0127
6.840171004275107,-0.015300000000000001,0.172,-9.7957,-0.0031,-0.004,0.0126
6.850171254281357,-0.005,0.1629,-9.790899999999999,-0.003,-0.0042,0.0127
6.8601715042876075,-0.0036999999999999997,0.1559,-9.804699999999999,-0.0028,-0.004,0.012799999999999999
6.870171754293858,-0.0119,0.1651,-9.7995,-0.0023,-0.0039,0.012899999999999998
6.880172004300108,-0.0015,0.1735,-9.8025,-0.0021,-0.004,0.013
6.890172254306358,-0.0144,0.1685,-9.797699999999999,-0.0015999999999999999,-0.004,0.012899999999999998
6.900172504312608,-0.014999999999999998,0.1565,-9.790799999999999,-0.0018,-0.004,0.0131
6.910172754318858,-0.0006000000000000001,0.1583,-9.8036,-0.0012000000000000001,-0.0039,0.0131
6.920173004325108,-0.014100000000000001,0.1648,-9.792399999999999,-0.0009,-0.0041,0.013
6.930173254331359,-0.007499999999999999,0.13829999999999998,-9.7802,-0.0005,-0.0043,0.013
6.940173504337609,0.0015,0.1387,-9.7989,0.00039999999999999996,-0.0042,0.013
6.950173754343859,-0.0043,0.16349999999999998,-9.806099999999999,0.0006000000000000001,-0.004,0.013
6.960174004350109,-0.0067,0.1714,-9.802900000000001,0.0005,-0.0042,0.0132
6.970174254356359,-0.0106,0.168,-9.796899999999999,0.0009,-0.0046,0.0132
6.980174504362609,-0.0060999999999999995,0.1706,-9.7955,0.0007999999999999999,-0.0045000000000000005,0.0134
6.9901747543688595,-0.0055,0.16069999999999998,-9.7998,0.0005,-0.0043,0.0134
7.00017500437511,-0.008,0.1587,-9.793899999999999,0.001,-0.004399999999999999,0.0135
7.01017525438136,0.0026,0.1566,-9.7943,0.0014,-0.004399999999999999,0.0135
7.02017550438761,0.0012000000000000001,0.1633,-9.8094,0.0017,-0.0041,0.0136
7.03017575439386,-0.004699999999999999,0.167,-9.8112,0.0018,-0.0041,0.0135
7.04017600440011,-0.0045000000000000005,0.17049999999999998,-9.8152,0.0017,-0.004399999999999999,0.0136
7.05017625440636,-0.005399999999999999,0.1745,-9.8052,0.0019,-0.0045000000000000005,0.0136
7.060176504412611,-0.0043,0.1754,-9.8015,0.0018,-0.004399999999999999,0.013699999999999999
7.070176754418861,-0.0033,0.1649,-9.8024,0.0015999999999999999,-0.004399999999999999,0.013699999999999999
7.080177004425111,-0.0015999999999999999,0.1669,-9.804599999999999,0.0015999999999999999,-0.0045000000000000005,0.0138
7.090177254431361,-0.0025,0.1795,-9.8072,0.0015,-0.004399999999999999,0.013999999999999999
7.100177504437611,0.0085,0.1688,-9.8181,0.0010999999999999998,-0.0045000000000000005,0.0139
7.110177754443861,0.0010999999999999998,0.1646,-9.8161,0.0009,-0.0045000000000000005,0.014100000000000001
7.1201780044501115,0.00030000000000000003,0.1721,-9.8154,0.00039999999999999996,-0.0045000000000000005,0.014100000000000001
7.130178254456362,0.003,0.1734,-9.8025,0.0006000000000000001,-0.0045000000000000005,0.0142
7.140178504462612,0.0015999999999999999,0.1698,-9.800699999999999,0.0005,-0.004399999999999999,0.0142
7.150178754468862,-0.0018,0.1592,-9.8022,0.00030000000000000003,-0.004399999999999999,0.0143
7.160179004475112,0.0065,0.16269999999999998,-9.8069,0.00019999999999999998,-0.004399999999999999,0.0143
7.170179254481362,0.00030000000000000003,0.1678,-9.804699999999999,0.00019999999999999998,-0.004399999999999999,0.0143
7.180179504487612,0.012,0.1599,-9.8121,9.999999999999999e-05,-0.0045000000000000005,0.0143
7.190179754493863,-0.0024000000000000002,0.1492,-9.8117,0.00030000000000000003,-0.004399999999999999,0.0143
7.200180004500113,0.0076,0.1606,-9.814,0.00030000000000000003,-0.004399999999999999,0.014499999999999999
7.210180254506363,0.0039,0.1803,-9.8099,0.0005,-0.0046,0.0146
7.220180504512613,-0.00030000000000000003,0.1669,-9.8063,0.00030000000000000003,-0.0046,0.014499999999999999
7.230180754518863,0.0031999999999999997,0.1539,-9.8027,0.0005,-0.0045000000000000005,0.0147
7.240181004525113,0.0034,0.16119999999999998,-9.8072,0.0007,-0.0045000000000000005,0.0147
7.2501812545313635,0.006,0.1603,-9.8107,0.0007999999999999999,-0.0045000000000000005,0.0147
7.260181504537614,0.007499999999999999,0.1544,-9.8139,0.001,-0.0046,0.0147
7.270181754543864,0.008799999999999999,0.14909999999999998,-9.8141,0.0010999999999999998,-0.0046,0.0147
7.280182004550114,0.0101,0.1558,-9.809800000000001,0.0013,-0.0046,0.0147
7.290182254556364,0.0081,0.16419999999999998,-9.8079,0.0015,-0.0046,0.014799999999999999
7.300182504562614,0.0091,0.1671,-9.8078,0.002,-0.0046,0.014799999999999999
7.3101827545688645,0.0010999999999999998,0.15410000000000001,-9.8079,0.0018,-0.0045000000000000005,0.014899999999999998
7.320183004575115,0.006,0.1474,-9.8118,0.0021,-0.0046,0.014899999999999998
7.330183254581365,0.0107,0.1574,-9.8159,0.0023,-0.004699999999999999,0.014999999999999998
7.340183504587615,0.0072,0.157,-9.8075,0.0026,-0.004699999999999999,0.014999999999999998
7.350183754593865,0.0183,0.15139999999999998,-9.8059,0.0025,-0.0048000000000000004,0.014999999999999998
7.360184004600115,0.012799999999999999,0.1475,-9.8125,0.0028,-0.004699999999999999,0.0151
7.370184254606365,0.012799999999999999,0.1619,-9.8144,0.0031,-0.0046,0.0151
7.3801845046126155,0.0091,0.1646,-9.815,0.0034999999999999996,-0.004699999999999999,0.014999999999999998
7.390184754618866,0.0065,0.1537,-9.8168,0.0031999999999999997,-0.004699999999999999,0.0151
7.400185004625116,0.012,0.15139999999999998,-9.8148,0.0033,-0.004699999999999999,0.0151
7.410185254631366,0.0116,0.1576,-9.8204,0.003,-0.004699999999999999,0.014999999999999998
7.420185504637616,0.014999999999999998,0.1564,-9.8209,0.003,-0.004699999999999999,0.0151
7.430185754643866,0.0136,0.1554,-9.8094,0.0034,-0.0048000000000000004,0.0152
7.4401860046501165,0.0142,0.16119999999999998,-9.815999999999999,0.0036999999999999997,-0.0048000000000000004,0.015300000000000001
7.450186254656367,0.012899999999999998,0.1698,-9.8222,0.004,-0.004699999999999999,0.0154
7.460186504662617,0.017599999999999998,0.1815,-9.8205,0.0039,-0.004699999999999999,0.0155
7.470186754668867,0.0092,0.16720000000000002,-9.8172,0.0031,-0.0049,0.015300000000000001
7.480187004675117,0.013300000000000001,0.1559,-9.818399999999999,0.0026,-0.0048000000000000004,0.0155
7.490187254681367,0.0156,0.15969999999999998,-9.825299999999999,0.0026,-0.0045000000000000005,0.0154
7.500187504687617,0.0189,0.1649,-9.8302,0.0025,-0.0045000000000000005,0.0155
7.510187754693868,0.0144,0.1647,-9.818499999999998,0.0025,-0.004699999999999999,0.0155
7.520188004700118,0.0163,0.1649,-9.814,0.002,-0.0048000000000000004,0.0156
7.530188254706368,0.025300000000000003,0.17049999999999998,-9.8162,0.0015,-0.004699999999999999,0.0156
7.540188504712618,0.0197,0.1739,-9.8215,0.0013,-0.0046,0.0157
7.550188754718868,0.014999999999999998,0.16590000000000002,-9.822899999999999,0.0009,-0.0046,0.0157
7.560189004725118,0.0121,0.1549,-9.8205,0.00039999999999999996,-0.004699999999999999,0.015899999999999997
7.5701892547313685,0.0169,0.1563,-9.8226,0.0005,-0.004699999999999999,0.015899999999999997
7.580189504737619,0.0213,0.1631,-9.824399999999999,0.0006000000000000001,-0.004699999999999999,0.015899999999999997
7.590189754743869,0.015899999999999997,0.16249999999999998,-9.8093,0.0007999999999999999,-0.004699999999999999,0.015899999999999997
7.600190004750119,0.0312,0.1508,-9.8227,0.0005,-0.0045000000000000005,0.015899999999999997
7.610190254756369,0.0168,0.1559,-9.8225,0.0007,-0.004399999999999999,0.016
7.620190504762619,0.025099999999999997,0.1644,-9.828299999999999,0.0006000000000000001,-0.0045000000000000005,0.016
7.630190754768869,0.0247,0.173,-9.8242,0.0005,-0.0046,0.0161
7.64019100477512,0.014999999999999998,0.1608,-9.8246,9.999999999999999e-05,-0.0046,0.016
7.65019125478137,0.020399999999999998,0.1553,-9.8191,-0.00019999999999999998,-0.0046,0.0162
7.66019150478762,0.020399999999999998,0.1582,-9.8183,-0.00019999999999999998,-0.0046,0.0161
7.67019175479387,0.0207,0.1571,-9.8057,9.999999999999999e-05,-0.004699999999999999,0.0162
7.680192004800121,0.0337,0.1391,-9.8234,0.00019999999999999998,-0.0045000000000000005,0.0162
7.690192254806371,0.018000000000000002,0.1407,-9.8263,0.0007999999999999999,-0.0045000000000000005,0.0162
7.700192504812621,0.031799999999999995,0.15239999999999998,-9.8322,0.0007,-0.0046,0.0162
7.710192754818872,0.0286,0.1629,-9.8335,0.0006000000000000001,-0.0046,0.0163
7.720193004825122,0.0224,0.1472,-9.8186,0.0005,-0.0046,0.016
7.730193254831372,0.0286,0.1303,-9.8235,0.00039999999999999996,-0.0045000000000000005,0.0163
7.740193504837622,0.0248,0.1312,-9.8301,0.001,-0.0041,0.0162
7.750193754843872,0.0278,0.13849999999999998,-9.832799999999999,0.0015,-0.0041,0.0161
7.760194004850122,0.0246,0.1268,-9.825000000000001,0.0021999999999999997,-0.0043,0.0162
7.7701942548563725,0.0326,0.1305,-9.83,0.0033,-0.004399999999999999,0.0162
7.780194504862623,0.0277,0.1522,-9.8359,0.004399999999999999,-0.004399999999999999,0.0163
7.790194754868873,0.021699999999999997,0.1587,-9.8176,0.0048000000000000004,-0.0046,0.0163
7.800195004875123,0.0325,0.1585,-9.8149,0.0052,-0.004699999999999999,0.0162
7.810195254881373,0.025799999999999997,0.1338,-9.8224,0.0048000000000000004,-0.004399999999999999,0.0162
7.820195504887623,0.0297,0.1251,-9.8329,0.0053,-0.0042,0.0162
7.830195754893873,0.029300000000000003,0.1493,-9.8365,0.0060999999999999995,-0.0042,0.0162
7.840196004900124,0.0317,0.1502,-9.8292,0.0066,-0.004399999999999999,0.0162
7.850196254906374,0.027399999999999997,0.1471,-9.816999999999998,0.006999999999999999,-0.004399999999999999,0.0162
7.860196504912624,0.0364,0.1557,-9.817499999999999,0.006999999999999999,-0.0042,0.0163
7.870196754918874,0.038400000000000004,0.1698,-9.831299999999999,0.0068,-0.004,0.0163
7.880197004925124,0.0272,0.16369999999999998,-9.8284,0.0066,-0.0039,0.0164
7.890197254931374,0.027999999999999997,0.153,-9.8321,0.0063999999999999994,-0.004,0.0165
7.9001975049376245,0.0294,0.1553,-9.8414,0.0062,-0.004,0.0166
7.910197754943875,0.0342,0.1784,-9.8452,0.0060999999999999995,-0.004,0.0166
7.920198004950125,0.0262,0.17309999999999998,-9.829799999999999,0.0055,-0.0041,0.0165
7.930198254956375,0.032299999999999995,0.1437,-9.8138,0.005399999999999999,-0.0042,0.0165
7.940198504962625,0.0391,0.1427,-9.8233,0.0055,-0.004,0.0166
7.950198754968875,0.0382,0.161,-9.8426,0.0059,-0.0036999999999999997,0.0166
7.9601990049751254,0.028699999999999996,0.1574,-9.836599999999999,0.0059,-0.0039,0.0165
7.970199254981376,0.030699999999999998,0.157,-9.829699999999999,0.006,-0.0042,0.0166
7.980199504987626,0.031,0.1599,-9.8263,0.0056,-0.0041,0.0167
7.990199754993876,0.0387,0.1722,-9.829699999999999,0.0055,-0.0039,0.0167
8.000200005000126,0.0315,0.1653,-9.8239,0.0050999999999999995,-0.0038,0.0168
8.010200255006376,0.0355,0.1487,-9.818,0.0052,-0.0036999999999999997,0.0169
8.020200505012626,0.0424,0.1533,-9.826600000000001,0.0053,-0.0034999999999999996,0.0169
8.030200755018877,0.0372,0.1583,-9.839,0.0053,-0.0034,0.0169
8.040201005025127,0.034,0.1505,-9.839,0.005399999999999999,-0.0034999999999999996,0.0169
8.050201255031377,0.0362,0.15839999999999999,-9.8285,0.0058,-0.0036999999999999997,0.0169
8.060201505037627,0.0363,0.1599,-9.8275,0.0058,-0.0036999999999999997,0.0168
8.070201755043877,0.0301,0.1549,-9.8262,0.0057,-0.0036,0.0169
8.080202005050127,0.033,0.16169999999999998,-9.8264,0.0059,-0.0034999999999999996,0.0169
8.090202255056377,0.036000000000000004,0.1646,-9.8277,0.0057,-0.0036,0.0169
8.100202505062628,0.0417,0.1603,-9.8302,0.0055,-0.0036999999999999997,0.0169
8.110202755068878,0.040299999999999996,0.1583,-9.8326,0.0055,-0.0036,0.017
8.120203005075128,0.0452,0.1583,-9.8363,0.0055,-0.0034999999999999996,0.017
8.130203255081378,0.036000000000000004,0.16149999999999998,-9.829799999999999,0.005399999999999999,-0.0034999999999999996,0.0171
8.140203505087628,0.038400000000000004,0.1641,-9.8241,0.0057,-0.0033,0.0171
8.150203755093878,0.04,0.1641,-9.8321,0.0056,-0.0031,0.0172
8.160204005100129,0.0369,0.1652,-9.841099999999999,0.0052,-0.0029,0.0171
8.170204255106379,0.0353,0.1623,-9.8355,0.0046,-0.003,0.0171
8.180204505112629,0.0415,0.1578,-9.8346,0.0046,-0.0031999999999999997,0.0171
8.190204755118879,0.044700000000000004,0.1542,-9.8457,0.0045000000000000005,-0.003,0.017
8.20020500512513,0.0469,0.1498,-9.841999999999999,0.004399999999999999,-0.0028,0.017
8.21020525513138,0.0327,0.1544,-9.8348,0.0053,-0.0031,0.0171
8.22020550513763,0.0429,0.1596,-9.8247,0.0059,-0.0031999999999999997,0.0172
8.23020575514388,0.0402,0.1611,-9.828899999999999,0.0067,-0.0031,0.0171
8.24020600515013,0.0315,0.1578,-9.8316,0.0068,-0.0029,0.0173
8.25020625515638,0.0424,0.1579,-9.838199999999999,0.0066,-0.003,0.0172
8.26020650516263,0.0387,0.1572,-9.8338,0.0068,-0.003,0.0172
8.27020675516888,0.0468,0.1545,-9.8255,0.0067,-0.003,0.0172
8.28020700517513,0.0552,0.15189999999999998,-9.835199999999999,0.0067,-0.0026999999999999997,0.0172
8.29020725518138,0.0397,0.1614,-9.8232,0.0071,-0.0025,0.0172
8.30020750518763,0.0472,0.1644,-9.8218,0.0073999999999999995,-0.0025,0.0172
8.31020775519388,0.0383,0.1679,-9.8242,0.007499999999999999,-0.0024000000000000002,0.0173
8.320208005200131,0.040299999999999996,0.15510000000000002,-9.8314,0.0073,-0.0023,0.0172
8.330208255206381,0.0413,0.1542,-9.8428,0.007499999999999999,-0.0024000000000000002,0.0173
8.340208505212631,0.0368,0.161,-9.8376,0.007499999999999999,-0.0025,0.0172
8.350208755218882,0.043199999999999995,0.1603,-9.8261,0.007899999999999999,-0.0026999999999999997,0.0172
8.360209005225132,0.0472,0.161,-9.8269,0.0078,-0.0026,0.0173
8.370209255231382,0.048799999999999996,0.1562,-9.8248,0.0083,-0.0025,0.0172
8.380209505237632,0.0413,0.1568,-9.8279,0.0087,-0.0025,0.0173
8.390209755243882,0.04889999999999999,0.1624,-9.8285,0.0091,-0.0025,0.0174
8.400210005250132,0.0446,0.16369999999999998,-9.8344,0.0098,-0.0024000000000000002,0.0172
8.410210255256382,0.0393,0.16770000000000002,-9.831,0.0095,-0.0024000000000000002,0.0174
8.420210505262633,0.044700000000000004,0.1629,-9.8291,0.009399999999999999,-0.0024000000000000002,0.0172
8.430210755268883,0.0444,0.1714,-9.8217,0.0093,-0.0021999999999999997,0.0173
8.440211005275133,0.0486,0.1688,-9.8189,0.0091,-0.0021,0.0173
8.450211255281383,0.0554,0.1679,-9.835099999999999,0.0091,-0.0019,0.0173
8.460211505287633,0.0366,0.1638,-9.8294,0.0091,-0.0019,0.0172
8.470211755293883,0.0474,0.17129999999999998,-9.835099999999999,0.009000000000000001,-0.002,0.0174
8.480212005300134,0.0444,0.1804,-9.8316,0.009399999999999999,-0.0021,0.0173
8.490212255306384,0.0416,0.1749,-9.8273,0.0092,-0.0021999999999999997,0.0174
8.500212505312634,0.0427,0.16590000000000002,-9.830400000000001,0.0089,-0.0021,0.0173
8.510212755318884,0.044700000000000004,0.1712,-9.832,0.0084,-0.002,0.0173
8.520213005325134,0.041800000000000004,0.1665,-9.8224,0.0086,-0.0021,0.0173
8.530213255331384,0.0518,0.1643,-9.826799999999999,0.0089,-0.0021999999999999997,0.0173
8.540213505337634,0.0509,0.1685,-9.828000000000001,0.0095,-0.002,0.0173
8.550213755343885,0.050100000000000006,0.1803,-9.8278,0.009399999999999999,-0.0019,0.0173
8.560214005350135,0.046599999999999996,0.1812,-9.8284,0.009399999999999999,-0.0019,0.0174
8.570214255356385,0.043199999999999995,0.18,-9.8193,0.009399999999999999,-0.0019,0.0173
8.580214505362635,0.048799999999999996,0.16720000000000002,-9.833699999999999,0.008799999999999999,-0.0015999999999999999,0.0173
8.590214755368885,0.0428,0.16419999999999998,-9.8339,0.0086,-0.0014,0.0173
8.600215005375135,0.0451,0.1765,-9.8303,0.008799999999999999,-0.0015999999999999999,0.0173
8.610215255381386,0.0457,0.17429999999999998,-9.829799999999999,0.0087,-0.0017,0.0173
8.620215505387636,0.0471,0.1749,-9.8256,0.0086,-0.0015999999999999999,0.0172
8.630215755393886,0.053,0.1716,-9.828299999999999,0.0085,-0.0015,0.0172
8.640216005400136,0.043699999999999996,0.17359999999999998,-9.828299999999999,0.008799999999999999,-0.0017,0.0173
8.650216255406386,0.0549,0.1965,-9.826500000000001,0.0091,-0.0015,0.0174
8.660216505412636,0.043199999999999995,0.2,-9.836599999999999,0.0085,-0.0014,0.0172
8.670216755418886,0.0433,0.1818,-9.8311,0.0077,-0.0015999999999999999,0.0173
8.680217005425137,0.0472,0.1835,-9.828000000000001,0.0072,-0.0015,0.0172
8.690217255431387,0.047,0.18539999999999998,-9.824399999999999,0.0069,-0.0014,0.0173
8.700217505437637,0.053799999999999994,0.1754,-9.8188,0.0072,-0.0013,0.0172
8.710217755443887,0.0581,0.1706,-9.826699999999999,0.007499999999999999,-0.001,0.0173
8.720218005450137,0.0446,0.1827,-9.8288,0.0077,-0.001,0.0173
8.730218255456387,0.0509,0.19799999999999998,-9.8318,0.007499999999999999,-0.0010999999999999998,0.0174
8.740218505462638,0.0478,0.19659999999999997,-9.830400000000001,0.0073,-0.0010999999999999998,0.0172
8.750218755468888,0.0409,0.1842,-9.8261,0.0068,-0.0010999999999999998,0.0174
8.760219005475138,0.0455,0.1778,-9.8215,0.0066,-0.0010999999999999998,0.0173
8.770219255481388,0.0509,0.18469999999999998,-9.8226,0.0068,-0.001,0.0174
8.780219505487638,0.049499999999999995,0.1819,-9.8168,0.0073,-0.001,0.0173
8.790219755493888,0.054299999999999994,0.17479999999999998,-9.828000000000001,0.007499999999999999,-0.0009,0.0174
8.800220005500138,0.0458,0.1764,-9.825899999999999,0.007899999999999999,-0.0009,0.0172
8.810220255506389,0.0541,0.1865,-9.8299,0.007899999999999999,-0.0009,0.0173
8.820220505512639,0.0525,0.1946,-9.8346,0.008,-0.0009,0.0173
8.830220755518889,0.038,0.1893,-9.8315,0.008,-0.0007999999999999999,0.0171
8.84022100552514,0.0487,0.1813,-9.815,0.0073999999999999995,-0.0007,0.0173
8.85022125553139,0.0491,0.1765,-9.824,0.0078,-0.0006000000000000001,0.0172
8.86022150553764,0.043,0.1807,-9.8149,0.0084,-0.0006000000000000001,0.0173
8.87022175554389,0.05739999999999999,0.1796,-9.826,0.009000000000000001,-0.00039999999999999996,0.0172
8.88022200555014,0.0531,0.1732,-9.834,0.0093,-0.00039999999999999996,0.0171
8.89022225555639,0.051699999999999996,0.1754,-9.8346,0.0095,-0.00039999999999999996,0.0171
8.90022250556264,0.0504,0.1853,-9.835,0.009600000000000001,-0.00039999999999999996,0.0172
8.91022275556889,0.044,0.1969,-9.8236,0.0098,-0.00039999999999999996,0.0171
8.92022300557514,0.046599999999999996,0.1884,-9.8187,0.0097,-0.0005,0.0171
8.93022325558139,0.0444,0.1943,-9.8134,0.009899999999999999,-0.0005,0.0171
8.94022350558764,0.0477,0.1996,-9.8095,0.0097,-0.00039999999999999996,0.0171
8.95022375559389,0.053399999999999996,0.1946,-9.8153,0.0097,-0.00030000000000000003,0.017
8.960224005600141,0.053700000000000005,0.1768,-9.8191,0.009399999999999999,-0.00019999999999999998,0.0169
8.970224255606391,0.0577,0.1696,-9.8336,0.0103,-0.0,0.0169
8.980224505612641,0.046,0.1898,-9.8311,0.0106,-9.999999999999999e-05,0.0169
8.990224755618891,0.0544,0.1998,-9.8222,0.0106,-0.0,0.0169
9.000225005625142,0.037399999999999996,0.20439999999999997,-9.8108,0.0109,-0.0,0.0168
9.010225255631392,0.04889999999999999,0.2029,-9.8071,0.0103,-0.0,0.0169
9.020225505637642,0.0486,0.1976,-9.8169,0.0097,0.00019999999999999998,0.0168
9.030225755643892,0.042499999999999996,0.19849999999999998,-9.8143,0.0095,0.00019999999999999998,0.0168
9.040226005650142,0.0514,0.1899,-9.818499999999998,0.0095,0.0,0.0168
9.050226255656392,0.0553,0.1925,-9.8292,0.0092,9.999999999999999e-05,0.0167
9.060226505662643,0.048299999999999996,0.1929,-9.8269,0.009399999999999999,0.00019999999999999998,0.0166
9.070226755668893,0.0468,0.20500000000000002,-9.8235,0.0095,9.999999999999999e-05,0.0167
9.080227005675143,0.05159999999999999,0.213,-9.813099999999999,0.0093,0.00019999999999999998,0.0166
9.090227255681393,0.045,0.21080000000000002,-9.8135,0.009399999999999999,0.00019999999999999998,0.0166
9.100227505687643,0.043699999999999996,0.21220000000000003,-9.8143,0.0091,0.00039999999999999996,0.0167
9.110227755693893,0.0485,0.2216,-9.824,0.0085,0.0005,0.0166
9.120228005700143,0.0424,0.2184,-9.815,0.0078,0.00039999999999999996,0.0166
9.130228255706394,0.0566,0.2107,-9.8261,0.0071,0.0005,0.0166
9.140228505712644,0.051199999999999996,0.208,-9.8243,0.0066,0.0007,0.0165
9.150228755718894,0.05109999999999999,0.2098,-9.829699999999999,0.0063,0.0007,0.0166
9.160229005725144,0.0509,0.2203,-9.8195,0.0063999999999999994,0.0007,0.0166
9.170229255731394,0.040499999999999994,0.2284,-9.811300000000001,0.0063,0.0007,0.0166
9.180229505737644,0.0468,0.2167,-9.8143,0.0055,0.0007,0.0167
9.190229755743895,0.045,0.21519999999999997,-9.8221,0.005,0.0007999999999999999,0.0166
9.200230005750145,0.042499999999999996,0.221,-9.8166,0.0045000000000000005,0.0007999999999999999,0.0166
9.210230255756395,0.0471,0.2123,-9.808300000000001,0.0043,0.0007,0.0165
9.220230505762645,0.0626,0.2066,-9.8233,0.004,0.0009,0.0165
9.230230755768895,0.045399999999999996,0.2046,-9.8209,0.004,0.0010999999999999998,0.0164
9.240231005775145,0.0508,0.2124,-9.8194,0.0038,0.001,0.0166
9.250231255781395,0.046599999999999996,0.2231,-9.8135,0.0042,0.0010999999999999998,0.0165
9.260231505787646,0.0428,0.2055,-9.8126,0.0039,0.0012000000000000001,0.0164
9.270231755793896,0.045,0.1969,-9.8102,0.004,0.0012000000000000001,0.0166
9.280232005800146,0.0436,0.2065,-9.8187,0.0043,0.0014,0.0164
9.290232255806396,0.0443,0.20609999999999998,-9.8141,0.0045000000000000005,0.0013,0.0165
9.300232505812646,0.0496,0.2046,-9.8156,0.004699999999999999,0.0014,0.0163
9.310232755818896,0.0541,0.1929,-9.8221,0.0045000000000000005,0.0015999999999999999,0.0161
9.320233005825147,0.0445,0.1911,-9.8158,0.005,0.0015,0.0161
9.330233255831397,0.048999999999999995,0.2082,-9.811499999999999,0.0057,0.0015,0.0163
9.340233505837647,0.04,0.2244,-9.8033,0.0066,0.0014,0.0162
9.350233755843897,0.042,0.22369999999999998,-9.8002,0.0062,0.0015,0.0163
9.360234005850147,0.040299999999999996,0.21919999999999998,-9.799199999999999,0.0060999999999999995,0.0014,0.0162
9.370234255856397,0.0482,0.22039999999999998,-9.8065,0.0057,0.0015,0.0162
9.380234505862648,0.0497,0.2046,-9.8109,0.0058,0.0015999999999999999,0.016
9.390234755868898,0.052199999999999996,0.1998,-9.8202,0.0058,0.0019,0.016
9.400235005875148,0.0435,0.1988,-9.814599999999999,0.0063999999999999994,0.0019,0.015899999999999997
9.410235255881398,0.0484,0.2218,-9.8102,0.0066,0.0018,0.016
9.420235505887648,0.0474,0.23739999999999997,-9.801400000000001,0.0067,0.0019,0.016
9.430235755893898,0.037899999999999996,0.22829999999999998,-9.804499999999999,0.0062,0.0021,0.015899999999999997
9.440236005900148,0.0385,0.2157,-9.8005,0.0057,0.0021,0.016
9.450236255906399,0.0419,0.2206,-9.8104,0.005399999999999999,0.002,0.016
9.460236505912649,0.0443,0.223,-9.8111,0.0057,0.0019,0.015899999999999997
9.470236755918899,0.042,0.222,-9.8088,0.0053,0.0018,0.015899999999999997
9.480237005925149,0.0508,0.2167,-9.8084,0.0052,0.0019,0.015799999999999998
9.4902372559314,0.0438,0.2186,-9.8073,0.005,0.0019,0.0157
9.50023750593765,0.052099999999999994,0.2321,-9.8104,0.0046,0.0021999999999999997,0.015799999999999998
9.5102377559439,0.0332,0.22790000000000002,-9.8057,0.0043,0.0023,0.0156
9.52023800595015,0.0394,0.21559999999999999,-9.7996,0.0041,0.0021,0.0157
9.5302382559564,0.037399999999999996,0.2288,-9.7986,0.004,0.0021999999999999997,0.0157
9.54023850596265,0.0411,0.2464,-9.799299999999999,0.0034999999999999996,0.0023,0.0157
9.5502387559689,0.0439,0.2341,-9.7979,0.0026999999999999997,0.0024000000000000002,0.0156
9.56023900597515,0.046099999999999995,0.2197,-9.803,0.0021,0.0024000000000000002,0.0156
9.5702392559814,0.0428,0.221,-9.809099999999999,0.0015999999999999999,0.0025,0.0156
9.58023950598765,0.0433,0.22569999999999998,-9.8143,0.0018,0.0026,0.0157
9.5902397559939,0.0411,0.23540000000000003,-9.806199999999999,0.0023,0.0025,0.0156
9.600240006000151,0.032,0.233,-9.7972,0.002,0.0024000000000000002,0.0156
9.610240256006401,0.0332,0.22399999999999998,-9.7941,0.0019,0.0024000000000000002,0.0156
9.620240506012651,0.04,0.2395,-9.7982,0.0018,0.0026,0.0155
9.630240756018901,0.0382,0.23640000000000003,-9.7953,0.0015,0.0026,0.0155
9.640241006025152,0.045,0.2183,-9.8036,0.001,0.0025,0.0155
9.650241256031402,0.041,0.2222,-9.806,0.001,0.0026,0.0154
9.660241506037652,0.0433,0.2363,-9.803799999999999,0.0007,0.0026,0.0154
9.670241756043902,0.040499999999999994,0.23579999999999998,-9.8012,0.0009,0.0026999999999999997,0.0155
9.680242006050152,0.0308,0.22889999999999996,-9.790899999999999,0.0010999999999999998,0.0028,0.0155
9.690242256056402,0.0361,0.2203,-9.7942,0.001,0.0029,0.0156
9.700242506062652,0.0356,0.2304,-9.799199999999999,0.0010999999999999998,0.003,0.0155
9.710242756068903,0.0343,0.2363,-9.803099999999999,0.001,0.003,0.0155
9.720243006075153,0.0361,0.2294,-9.7927,0.0007999999999999999,0.0028,0.0154
9.730243256081403,0.0481,0.22330000000000003,-9.799900000000001,0.00039999999999999996,0.0028,0.015300000000000001
9.740243506087653,0.034,0.22799999999999998,-9.7972,9.999999999999999e-05,0.003,0.015300000000000001
9.750243756093903,0.0375,0.2287,-9.8009,9.999999999999999e-05,0.0029,0.015300000000000001
9.760244006100153,0.033100000000000004,0.2328,-9.7907,0.00039999999999999996,0.0029,0.0152
9.770244256106404,0.0313,0.2294,-9.7914,9.999999999999999e-05,0.003,0.015300000000000001
9.780244506112654,0.030899999999999997,0.2294,-9.7989,-0.00039999999999999996,0.003,0.0152
9.790244756118904,0.0327,0.23540000000000003,-9.797699999999999,-0.0015999999999999999,0.0031,0.0152
9.800245006125154,0.0346,0.2288,-9.7878,-0.0017,0.0029,0.0151
9.810245256131404,0.041800000000000004,0.2288,-9.7918,-0.0021999999999999997,0.003,0.0152
9.820245506137654,0.0414,0.22859999999999997,-9.800799999999999,-0.0028,0.0034,0.0151
9.830245756143905,0.025300000000000003,0.2321,-9.7907,-0.0034,0.0034,0.0151
9.840246006150155,0.0334,0.2285,-9.7872,-0.0031,0.0031,0.0151
9.850246256156405,0.025599999999999998,0.23440000000000003,-9.787899999999999,-0.0031,0.0031,0.0151
9.860246506162655,0.0343,0.2305,-9.7902,-0.0033,0.0033,0.014999999999999998
9.870246756168905,0.028200000000000003,0.22169999999999998,-9.794799999999999,-0.0033,0.0031999999999999997,0.014899999999999998
9.880247006175155,0.0299,0.2205,-9.7843,-0.0033,0.003,0.014899999999999998
9.890247256181405,0.0336,0.22190000000000001,-9.7817,-0.0031999999999999997,0.0031,0.014799999999999999
9.900247506187656,0.0419,0.2154,-9.7967,-0.0029,0.0034,0.014799999999999999
9.910247756193906,0.0228,0.21480000000000002,-9.7886,-0.0023,0.0033,0.0147
9.920248006200156,0.0351,0.2197,-9.79,-0.0021,0.0031999999999999997,0.014799999999999999
9.930248256206406,0.028999999999999998,0.23129999999999998,-9.787999999999998,-0.0018,0.0033,0.0147
9.940248506212656,0.029300000000000003,0.22039999999999998,-9.7875,-0.002,0.0034999999999999996,0.0147
9.950248756218906,0.025799999999999997,0.2039,-9.7911,-0.0015999999999999999,0.0033,0.0147
9.960249006225157,0.029599999999999998,0.21419999999999997,-9.7916,-0.0010999999999999998,0.0034,0.0146
9.970249256231407,0.0297,0.21280000000000002,-9.7861,-0.0009,0.0034999999999999996,0.0144
9.980249506237657,0.0385,0.20279999999999998,-9.802,-0.0012000000000000001,0.0036999999999999997,0.0144
9.990249756243907,0.0239,0.21320000000000003,-9.7903,-0.0007999999999999999,0.0036,0.0143
10.000250006250157,0.0281,0.2308,-9.7888,-0.001,0.0034,0.0143
10.010250256256407,0.031799999999999995,0.2366,-9.788499999999999,-0.0014,0.0034999999999999996,0.0143
10.020250506262657,0.0181,0.22899999999999998,-9.7776,-0.0014,0.0034,0.0142
10.030250756268908,0.0242,0.22019999999999998,-9.771799999999999,-0.0015999999999999999,0.0031999999999999997,0.0143
10.040251006275158,0.0291,0.22019999999999998,-9.7828,-0.0010999999999999998,0.0034,0.0142
10.050251256281408,0.026099999999999998,0.218,-9.7849,-0.0007,0.0036,0.013999999999999999
10.060251506287658,0.0268,0.2073,-9.788499999999999,-0.0009,0.0036,0.013999999999999999
10.070251756293908,0.030899999999999997,0.2097,-9.789,-0.0007999999999999999,0.0034999999999999996,0.0139
10.080252006300158,0.0278,0.2208,-9.784099999999999,-0.0010999999999999998,0.0036,0.013699999999999999
10.090252256306409,0.031599999999999996,0.2272,-9.7836,-0.0010999999999999998,0.0038,0.0139
10.100252506312659,0.013300000000000001,0.22920000000000001,-9.7719,-0.0009,0.0038,0.013699999999999999
10.110252756318909,0.0202,0.2167,-9.7683,-0.0012000000000000001,0.0036999999999999997,0.0138
10.120253006325159,0.021699999999999997,0.212,-9.7773,-0.0010999999999999998,0.0036999999999999997,0.0138
10.13025325633141,0.0214,0.2208,-9.7822,-0.0007999999999999999,0.0036,0.013699999999999999
10.14025350633766,0.020900000000000002,0.2167,-9.7803,-0.0006000000000000001,0.0034999999999999996,0.0136
10.15025375634391,0.0324,0.2225,-9.792,-0.0007999999999999999,0.0034999999999999996,0.0136
10.16025400635016,0.020399999999999998,0.2207,-9.7857,-0.0012000000000000001,0.0034999999999999996,0.0134
10.17025425635641,0.0278,0.22390000000000002,-9.7804,-0.0012000000000000001,0.0034999999999999996,0.0136
10.18025450636266,0.025099999999999997,0.23770000000000002,-9.7822,-0.0007,0.0036,0.0134
10.19025475636891,0.0163,0.2242,-9.7744,-0.0007999999999999999,0.0039,0.013300000000000001
10.20025500637516,0.014799999999999999,0.2055,-9.7747,-0.0005,0.0039,0.013300000000000001
10.21025525638141,0.0171,0.22859999999999997,-9.7851,-0.00030000000000000003,0.0038,0.0134
10.22025550638766,0.0166,0.2399,-9.7803,-0.0006000000000000001,0.0036999999999999997,0.0131
10.23025575639391,0.0254,0.23099999999999998,-9.783,-0.0013,0.0036,0.0132
10.24025600640016,0.0254,0.22269999999999998,-9.7863,-0.0017,0.0036999999999999997,0.013
10.250256256406411,0.0142,0.2238,-9.7747,-0.0021,0.0039,0.0132
10.260256506412661,0.029999999999999995,0.2392,-9.7876,-0.002,0.0039,0.013300000000000001
10.270256756418911,0.005399999999999999,0.2284,-9.783999999999999,-0.0017,0.0039,0.013
10.280257006425161,0.0126,0.2193,-9.777199999999999,-0.0017,0.0038,0.0132
10.290257256431412,0.0144,0.22899999999999998,-9.7804,-0.0015999999999999999,0.0038,0.013
10.300257506437662,0.016,0.2379,-9.7776,-0.002,0.0038,0.013
10.310257756443912,0.017499999999999998,0.2324,-9.7721,-0.0023,0.0038,0.012899999999999998
10.320258006450162,0.0223,0.219,-9.7794,-0.0029,0.004,0.012899999999999998
10.330258256456412,0.0203,0.2272,-9.786999999999999,-0.0033,0.004,0.012799999999999999
10.340258506462662,0.013300000000000001,0.2297,-9.7815,-0.0031,0.004,0.012799999999999999
10.350258756468913,0.0121,0.22889999999999996,-9.774099999999999,-0.0026999999999999997,0.0039,0.012799999999999999
10.360259006475163,0.0089,0.21480000000000002,-9.771,-0.0025,0.0039,0.012799999999999999
10.370259256481413,0.0091,0.21489999999999998,-9.7722,-0.0021,0.0039,0.012799999999999999
10.380259506487663,0.014100000000000001,0.23099999999999998,-9.7775,-0.002,0.004,0.012799999999999999
10.390259756493913,0.0093,0.2291,-9.7752,-0.0019,0.0039,0.0126
10.400260006500163,0.0181,0.22360000000000002,-9.7729,-0.0024000000000000002,0.0039,0.0126
10.410260256506414,0.0169,0.22290000000000001,-9.7815,-0.0024000000000000002,0.0041,0.0125
10.420260506512664,0.0085,0.2317,-9.7812,-0.0026,0.0041,0.0126
10.430260756518914,0.0151,0.23479999999999998,-9.7791,-0.0023,0.0041,0.0125
10.440261006525164,0.0015999999999999999,0.2238,-9.7732,-0.0021999999999999997,0.004,0.0124
10.450261256531414,0.007899999999999999,0.21459999999999999,-9.7697,-0.002,0.004,0.0124
10.460261506537664,0.0086,0.22430000000000003,-9.7745,-0.0019,0.0041,0.0123
10.470261756543914,0.0063999999999999994,0.23670000000000002,-9.7671,-0.0019,0.004,0.0124
10.480262006550165,0.0115,0.2312,-9.77,-0.0024000000000000002,0.004,0.012199999999999999
10.490262256556415,0.0084,0.2197,-9.7725,-0.0028,0.004,0.0123
10.500262506562665,0.0125,0.2302,-9.7782,-0.0029,0.004,0.012199999999999999
10.510262756568915,0.0115,0.2376,-9.774199999999999,-0.0029,0.0039,0.012199999999999999
10.520263006575165,-0.004399999999999999,0.2261,-9.7626,-0.0026,0.0039,0.0121
10.530263256581415,0.0045000000000000005,0.21789999999999998,-9.7614,-0.0026,0.004,0.012199999999999999
10.540263506587666,0.0056,0.21719999999999998,-9.7714,-0.0024000000000000002,0.0041,0.012
10.550263756593916,0.0034999999999999996,0.23029999999999998,-9.773,-0.0024000000000000002,0.0041,0.012
10.560264006600166,0.0063,0.2291,-9.771799999999999,-0.0025,0.0041,0.0119
10.570264256606416,0.010799999999999999,0.22360000000000002,-9.777099999999999,-0.0031,0.0041,0.0119
10.580264506612666,0.0038,0.2332,-9.7732,-0.0036,0.004,0.0118
10.590264756618916,0.008,0.23600000000000002,-9.7758,-0.0043,0.004,0.0118
10.600265006625166,-0.0031,0.23199999999999998,-9.7616,-0.0045000000000000005,0.0039,0.0118
10.610265256631417,-0.0017,0.21889999999999998,-9.7597,-0.0045000000000000005,0.0039,0.0118
10.620265506637667,0.0013,0.21389999999999998,-9.7675,-0.0041,0.0039,0.0118
10.630265756643917,-9.999999999999999e-05,0.2183,-9.7719,-0.0038,0.0039,0.0116
10.640266006650167,0.001,0.2272,-9.7652,-0.0031999999999999997,0.0038,0.0117
10.650266256656417,0.0083,0.23779999999999998,-9.773900000000001,-0.0034,0.0039,0.0116
10.660266506662667,0.0046,0.2356,-9.7706,-0.0041,0.0041,0.0115
10.670266756668918,0.0014,0.22659999999999997,-9.773900000000001,-0.0046,0.004,0.0115
10.680267006675168,0.005399999999999999,0.23470000000000002,-9.7743,-0.0045000000000000005,0.0041,0.0115
10.690267256681418,-0.0072,0.22959999999999997,-9.7676,-0.004699999999999999,0.0043,0.0113
10.700267506687668,-0.0055,0.2103,-9.7647,-0.0046,0.004,0.0114
10.710267756693918,-0.004,0.21280000000000002,-9.7711,-0.0042,0.0039,0.0113
10.720268006700168,-0.0042,0.2317,-9.764000000000001,-0.0039,0.0039,0.0113
10.730268256706418,-0.0007999999999999999,0.2307,-9.7627,-0.0043,0.0038,0.0112
10.740268506712669,0.0073999999999999995,0.2234,-9.772599999999999,-0.0048000000000000004,0.0038,0.0112
10.750268756718919,-0.0048000000000000004,0.2305,-9.7755,-0.0053,0.0039,0.0112
10.760269006725169,-0.0010999999999999998,0.23509999999999998,-9.7745,-0.0056,0.0039,0.0112
10.770269256731419,-0.0062,0.2329,-9.7762,-0.0055,0.0039,0.0112
10.78026950673767,-0.0078,0.21889999999999998,-9.7627,-0.005399999999999999,0.004,0.0111
10.79026975674392,-0.0063,0.21259999999999998,-9.761,-0.0050999999999999995,0.0039,0.0111
10.80027000675017,-0.003,0.2221,-9.7679,-0.0049,0.0041,0.011
10.81027025675642,-0.0071,0.22599999999999998,-9.758,-0.004399999999999999,0.0039,0.0109
10.82027050676267,0.00019999999999999998,0.22920000000000001,-9.764299999999999,-0.005,0.004,0.011
10.83027075676892,-0.005,0.2215,-9.777099999999999,-0.0053,0.004,0.010799999999999999
10.84027100677517,-0.0132,0.234,-9.7662,-0.0057,0.0039,0.0109
10.85027125678142,0.00030000000000000003,0.2461,-9.7699,-0.0062,0.0038,0.011
10.86027150678767,-0.0201,0.2365,-9.7614,-0.0063,0.0036999999999999997,0.010799999999999999
10.87027175679392,-0.013300000000000001,0.2206,-9.7494,-0.0067,0.0036,0.011
10.88027200680017,-0.0101,0.2211,-9.7438,-0.0063999999999999994,0.0034999999999999996,0.0111
10.890272256806421,-0.0092,0.23479999999999998,-9.7438,-0.0053,0.0033,0.011
10.900272506812671,-0.0034,0.2343,-9.7581,-0.0053,0.0036999999999999997,0.0109
10.910272756818921,-0.0046,0.2232,-9.7623,-0.0052,0.0036999999999999997,0.011
10.920273006825171,-0.0168,0.22999999999999998,-9.7547,-0.0048000000000000004,0.0034999999999999996,0.0109
10.930273256831422,0.0007999999999999999,0.22799999999999998,-9.764899999999999,-0.0048000000000000004,0.0034999999999999996,0.0109
10.940273506837672,-0.0177,0.2218,-9.762,-0.004,0.0038,0.010799999999999999
10.950273756843922,-0.0135,0.216,-9.757499999999999,-0.0036,0.0036999999999999997,0.0109
10.960274006850172,-0.0109,0.21789999999999998,-9.7682,-0.0039,0.0036,0.010799999999999999
10.970274256856422,-0.0238,0.21419999999999997,-9.758600000000001,-0.0041,0.0034999999999999996,0.010799999999999999
10.980274506862672,-0.0081,0.22690000000000002,-9.7541,-0.0038,0.0033,0.010799999999999999
10.990274756868923,-0.009600000000000001,0.2328,-9.7708,-0.004399999999999999,0.0033,0.011
11.000275006875173,-0.0215,0.2302,-9.757399999999999,-0.0045000000000000005,0.0031,0.0109
11.010275256881423,-0.0072,0.24130000000000001,-9.7693,-0.0048000000000000004,0.003,0.0111
11.020275506887673,-0.0142,0.2439,-9.7652,-0.005,0.003,0.0109
11.030275756893923,-0.0134,0.2278,-9.7642,-0.005399999999999999,0.0031,0.0109
11.040276006900173,-0.0193,0.20479999999999998,-9.7616,-0.0053,0.0031999999999999997,0.010799999999999999
11.050276256906423,-0.0132,0.20669999999999997,-9.7671,-0.0046,0.0033,0.010799999999999999
11.060276506912674,-0.0178,0.2342,-9.7559,-0.0036,0.0033,0.0109
11.070276756918924,-0.014499999999999999,0.22629999999999997,-9.762,-0.0034,0.0031999999999999997,0.0107
11.080277006925174,-0.0185,0.2206,-9.7562,-0.0034999999999999996,0.0031999999999999997,0.010799999999999999
11.090277256931424,-0.0157,0.22959999999999997,-9.7633,-0.0036,0.0031999999999999997,0.010799999999999999
11.100277506937674,-0.0135,0.2332,-9.763399999999999,-0.0038,0.0031,0.011
11.110277756943924,-0.028499999999999998,0.22399999999999998,-9.763399999999999,-0.0036,0.003,0.0109
11.120278006950175,-0.0197,0.21289999999999998,-9.7558,-0.0036999999999999997,0.0028,0.011
11.130278256956425,-0.0182,0.2103,-9.7631,-0.0034999999999999996,0.0026999999999999997,0.011
11.140278506962675,-0.0229,0.2207,-9.750399999999999,-0.0026999999999999997,0.0026999999999999997,0.0109
11.150278756968925,-0.0093,0.2213,-9.755999999999998,-0.0023,0.0026999999999999997,0.010799999999999999
11.160279006975175,-0.0172,0.21159999999999998,-9.7545,-0.002,0.0029,0.0109
11.170279256981425,-0.0136,0.2194,-9.7717,-0.0019,0.003,0.010799999999999999
11.180279506987675,-0.022,0.2363,-9.768799999999999,-0.002,0.0029,0.0109
11.190279756993926,-0.0226,0.23579999999999998,-9.7647,-0.002,0.0026999999999999997,0.0107
11.200280007000176,-0.021699999999999997,0.2309,-9.7551,-0.0024000000000000002,0.0026999999999999997,0.0109
11.210280257006426,-0.0259,0.22460000000000002,-9.7533,-0.0026,0.0026999999999999997,0.010799999999999999
11.220280507012676,-0.024399999999999998,0.23099999999999998,-9.7554,-0.0028,0.0026999999999999997,0.011
11.230280757018926,-0.021699999999999997,0.23149999999999998,-9.7518,-0.0026,0.0025,0.010799999999999999
11.240281007025176,-0.0184,0.23149999999999998,-9.7593,-0.0033,0.0024000000000000002,0.011
11.250281257031427,-0.0231,0.22599999999999998,-9.7652,-0.0036999999999999997,0.0024000000000000002,0.0109
11.260281507037677,-0.0178,0.2373,-9.769799999999998,-0.004399999999999999,0.0023,0.011
11.270281757043927,-0.024,0.249,-9.7583,-0.0049,0.0021999999999999997,0.0111
11.280282007050177,-0.027,0.24209999999999998,-9.754,-0.0052,0.0021999999999999997,0.011
11.290282257056427,-0.025500000000000002,0.2342,-9.751999999999999,-0.0060999999999999995,0.0023,0.0111
11.300282507062677,-0.0264,0.22460000000000002,-9.750399999999999,-0.0062,0.0023,0.0111
11.310282757068927,-0.0276,0.2373,-9.755999999999998,-0.0056,0.0021999999999999997,0.0111
11.320283007075178,-0.017,0.23869999999999997,-9.758899999999999,-0.0063,0.0021999999999999997,0.0111
11.330283257081428,-0.0195,0.2251,-9.7647,-0.0069,0.0023,0.0111
11.340283507087678,-0.026,0.22859999999999997,-9.765600000000001,-0.0078,0.0021999999999999997,0.0111
11.350283757093928,-0.0165,0.2319,-9.7715,-0.0084,0.0021,0.0112
11.360284007100178,-0.0327,0.23029999999999998,-9.7637,-0.0083,0.0021,0.0111
11.370284257106428,-0.0299,0.22360000000000002,-9.750300000000001,-0.0086,0.0019,0.0113
11.380284507112679,-0.026600000000000002,0.22,-9.7579,-0.0086,0.0018,0.0113
11.390284757118929,-0.034499999999999996,0.23470000000000002,-9.7552,-0.0087,0.0017,0.0114
11.400285007125179,-0.0219,0.2301,-9.7534,-0.0092,0.0017,0.0112
11.410285257131429,-0.0197,0.21719999999999998,-9.767000000000001,-0.0098,0.0017,0.0112
11.42028550713768,-0.0275,0.2063,-9.7689,-0.010199999999999999,0.0018,0.0111
11.43028575714393,-0.0201,0.2201,-9.772599999999999,-0.010199999999999999,0.0018,0.0113
11.44028600715018,-0.0286,0.23059999999999997,-9.7628,-0.0097,0.0017,0.0112
11.45028625715643,-0.0278,0.217,-9.7541,-0.0098,0.0015999999999999999,0.0113
11.46028650716268,-0.0325,0.2063,-9.747599999999998,-0.0095,0.0017,0.0113
11.47028675716893,-0.0273,0.21389999999999998,-9.7578,-0.0095,0.0018,0.0113
11.48028700717518,-0.0291,0.21350000000000002,-9.7581,-0.0092,0.0015999999999999999,0.0113
11.49028725718143,-0.027399999999999997,0.2072,-9.7666,-0.009399999999999999,0.0015,0.0113
11.50028750718768,-0.0254,0.20400000000000001,-9.7701,-0.0095,0.0014,0.0113
11.51028775719393,-0.026600000000000002,0.2157,-9.77,-0.009600000000000001,0.0013,0.0113
11.52028800720018,-0.0182,0.223,-9.765799999999999,-0.0095,0.0012000000000000001,0.0114
11.530288257206431,-0.038099999999999995,0.2196,-9.7541,-0.009399999999999999,0.0013,0.0113
11.540288507212681,-0.031599999999999996,0.2006,-9.750300000000001,-0.0093,0.0012000000000000001,0.0114
11.550288757218931,-0.0265,0.2022,-9.7621,-0.0091,0.0014,0.0114
11.560289007225181,-0.0334,0.2086,-9.7666,-0.008799999999999999,0.0014,0.0114
11.570289257231432,-0.026699999999999998,0.213,-9.7659,-0.0089,0.0010999999999999998,0.0114
11.580289507237682,-0.020399999999999998,0.20699999999999996,-9.770299999999999,-0.0095,0.0012000000000000001,0.0114
11.590289757243932,-0.028699999999999996,0.2063,-9.7745,-0.009600000000000001,0.0012000000000000001,0.0113
11.600290007250182,-0.0326,0.22019999999999998,-9.7679,-0.0101,0.0012000000000000001,0.0115
11.610290257256432,-0.0341,0.21380000000000002,-9.7583,-0.0101,0.0010999999999999998,0.0114
11.620290507262682,-0.033100000000000004,0.2043,-9.7568,-0.0104,0.0010999999999999998,0.0116
11.630290757268932,-0.0344,0.1938,-9.762,-0.0105,0.001,0.0115
11.640291007275183,-0.0356,0.19519999999999998,-9.7652,-0.0107,0.0009,0.0115
11.650291257281433,-0.0301,0.1988,-9.756499999999999,-0.0103,0.0007,0.0114
11.660291507287683,-0.0228,0.18409999999999999,-9.7597,-0.0105,0.0006000000000000001,0.0113
11.670291757293933,-0.0268,0.1838,-9.765799999999999,-0.010199999999999999,0.0007,0.0114
11.680292007300183,-0.0312,0.19949999999999998,-9.7646,-0.0098,0.0007999999999999999,0.0114
11.690292257306433,-0.0246,0.215,-9.7652,-0.0097,0.0007999999999999999,0.0115
11.700292507312684,-0.0371,0.20709999999999998,-9.7642,-0.009899999999999999,0.0007999999999999999,0.0115
11.710292757318934,-0.0332,0.1893,-9.7633,-0.0098,0.0007,0.0116
11.720293007325184,-0.0294,0.19449999999999998,-9.77,-0.009899999999999999,0.0007999999999999999,0.0116
11.730293257331434,-0.0312,0.1948,-9.7671,-0.0098,0.0007,0.0115
11.740293507337684,-0.0263,0.18209999999999998,-9.7667,-0.0095,0.0006000000000000001,0.0115
11.750293757343934,-0.0339,0.1873,-9.7615,-0.0095,0.0006000000000000001,0.0116
11.760294007350184,-0.0276,0.20040000000000002,-9.7736,-0.009899999999999999,0.0006000000000000001,0.0115
11.770294257356435,-0.028200000000000003,0.20400000000000001,-9.775599999999999,-0.01,0.00039999999999999996,0.0115
11.780294507362685,-0.0415,0.20579999999999998,-9.7659,-0.010199999999999999,0.00030000000000000003,0.0116
11.790294757368935,-0.030299999999999997,0.1935,-9.766399999999999,-0.0107,0.00019999999999999998,0.0116
11.800295007375185,-0.0301,0.18259999999999998,-9.774099999999999,-0.010799999999999999,0.00030000000000000003,0.0116
11.810295257381435,-0.0344,0.1922,-9.768699999999999,-0.0107,0.00039999999999999996,0.0117
11.820295507387685,-0.0313,0.18639999999999998,-9.7628,-0.0107,0.00030000000000000003,0.0116
11.830295757393936,-0.021699999999999997,0.1794,-9.774099999999999,-0.0107,0.00039999999999999996,0.0117
11.840296007400186,-0.0354,0.179,-9.7706,-0.0106,0.0006000000000000001,0.0116
11.850296257406436,-0.0243,0.18359999999999999,-9.7819,-0.0106,0.0005,0.0117
11.860296507412686,-0.0397,0.18639999999999998,-9.771,-0.0101,0.00039999999999999996,0.0116
11.870296757418936,-0.0349,0.18339999999999998,-9.7671,-0.010199999999999999,0.00030000000000000003,0.0117
11.880297007425186,-0.0377,0.1744,-9.7669,-0.0101,0.00030000000000000003,0.0117
11.890297257431437,-0.0353,0.1778,-9.7686,-0.009899999999999999,0.00019999999999999998,0.0117
11.900297507437687,-0.0326,0.1795,-9.7676,-0.0097,0.00019999999999999998,0.0117
11.910297757443937,-0.0286,0.1682,-9.770900000000001,-0.009399999999999999,9.999999999999999e-05,0.0117
11.920298007450187,-0.0291,0.1685,-9.7751,-0.0092,9.999999999999999e-05,0.0117
11.930298257456437,-0.034699999999999995,0.175,-9.7747,-0.0089,9.999999999999999e-05,0.0117
11.940298507462687,-0.0297,0.18309999999999998,-9.772400000000001,-0.0086,9.999999999999999e-05,0.0118
11.950298757468937,-0.0378,0.18289999999999998,-9.7582,-0.0081,-9.999999999999999e-05,0.0119
11.960299007475188,-0.0362,0.1776,-9.7595,-0.007499999999999999,-9.999999999999999e-05,0.0119
11.970299257481438,-0.030899999999999997,0.1792,-9.7669,-0.0076,9.999999999999999e-05,0.0119
11.980299507487688,-0.0346,0.1765,-9.772,-0.0076,0.00019999999999999998,0.0119
11.990299757493938,-0.0344,0.1679,-9.774,-0.0077,0.0,0.0117
12.000300007500188,-0.0252,0.1585,-9.780899999999999,-0.0081,9.999999999999999e-05,0.0118
12.010300257506438,-0.0299,0.1574,-9.7876,-0.007899999999999999,0.00019999999999999998,0.0118
12.020300507512689,-0.0337,0.1773,-9.7798,-0.007499999999999999,-0.0,0.012
12.030300757518939,-0.038,0.1892,-9.7675,-0.0067,-0.00019999999999999998,0.0119
12.040301007525189,-0.0436,0.1805,-9.758799999999999,-0.0069,-0.00030000000000000003,0.0121
12.050301257531439,-0.0322,0.1641,-9.767199999999999,-0.006999999999999999,-0.00019999999999999998,0.012
12.06030150753769,-0.0342,0.1689,-9.778599999999999,-0.0072,-0.00019999999999999998,0.0121
12.07030175754394,-0.0339,0.1624,-9.7795,-0.006999999999999999,-0.00030000000000000003,0.012
12.08030200755019,-0.0301,0.1528,-9.7812,-0.0068,-0.00039999999999999996,0.012
12.09030225755644,-0.0291,0.1554,-9.7797,-0.0063,-0.00030000000000000003,0.012
12.10030250756269,-0.0334,0.16720000000000002,-9.7768,-0.0059,-0.00030000000000000003,0.012
12.11030275756894,-0.031,0.178,-9.763399999999999,-0.0053,-0.00030000000000000003,0.0121
12.12030300757519,-0.0373,0.1663,-9.7667,-0.005,-0.00019999999999999998,0.012
12.13030325758144,-0.0378,0.1534,-9.769,-0.0050999999999999995,-9.999999999999999e-05,0.0121
12.14030350758769,-0.0355,0.1542,-9.7819,-0.005,-0.00019999999999999998,0.0121
12.15030375759394,-0.0359,0.1664,-9.7806,-0.0049,-0.00039999999999999996,0.0121
12.16030400760019,-0.029999999999999995,0.1611,-9.7821,-0.0050999999999999995,-0.0005,0.0121
12.17030425760644,-0.0357,0.1578,-9.7735,-0.0048000000000000004,-0.0005,0.0121
12.180304507612691,-0.0313,0.1601,-9.7729,-0.004699999999999999,-0.00039999999999999996,0.0121
12.190304757618941,-0.0262,0.16570000000000001,-9.779599999999999,-0.0041,-0.00039999999999999996,0.0123
12.200305007625191,-0.0413,0.1628,-9.773,-0.0036,-0.0005,0.0121
12.210305257631441,-0.037,0.1508,-9.777800000000001,-0.0034999999999999996,-0.0006000000000000001,0.0123
12.220305507637692,-0.0336,0.1529,-9.7799,-0.0031999999999999997,-0.0006000000000000001,0.0121
12.230305757643942,-0.0351,0.1613,-9.780899999999999,-0.0031,-0.0006000000000000001,0.012199999999999999
12.240306007650192,-0.0358,0.1614,-9.7711,-0.0031,-0.0006000000000000001,0.0121
12.250306257656442,-0.028999999999999998,0.16149999999999998,-9.7762,-0.0034,-0.0006000000000000001,0.012199999999999999
12.260306507662692,-0.0319,0.1644,-9.7817,-0.0036,-0.0005,0.012199999999999999
12.270306757668942,-0.0354,0.1671,-9.7799,-0.0038,-0.0006000000000000001,0.0123
12.280307007675193,-0.039599999999999996,0.1694,-9.7675,-0.003,-0.0009,0.0124
12.290307257681443,-0.0337,0.1681,-9.7722,-0.0031,-0.0007999999999999999,0.0125
12.300307507687693,-0.0335,0.15889999999999999,-9.7804,-0.0034,-0.0006000000000000001,0.0123
12.310307757693943,-0.0438,0.1583,-9.7821,-0.004,-0.0007,0.0123
12.320308007700193,-0.0326,0.1553,-9.7752,-0.0042,-0.001,0.012199999999999999
12.330308257706443,-0.0259,0.15360000000000001,-9.7857,-0.0046,-0.0007999999999999999,0.012199999999999999
12.340308507712693,-0.0372,0.1493,-9.7821,-0.0042,-0.0006000000000000001,0.0123
12.350308757718944,-0.0356,0.16369999999999998,-9.7852,-0.004,-0.0007999999999999999,0.0125
12.360309007725194,-0.0339,0.1795,-9.7755,-0.0038,-0.0009,0.0125
12.370309257731444,-0.0383,0.1725,-9.777199999999999,-0.004399999999999999,-0.001,0.0125
12.380309507737694,-0.04,0.1525,-9.7773,-0.0046,-0.0009,0.0125
12.390309757743944,-0.0337,0.151,-9.7843,-0.0049,-0.0009,0.0125
12.400310007750194,-0.034699999999999995,0.15209999999999999,-9.7797,-0.004699999999999999,-0.001,0.0126
12.410310257756445,-0.0275,0.1479,-9.7926,-0.0045000000000000005,-0.001,0.0124
12.420310507762695,-0.0324,0.14809999999999998,-9.7852,-0.0043,-0.0009,0.0125
12.430310757768945,-0.0335,0.1578,-9.7843,-0.0041,-0.001,0.0124
12.440311007775195,-0.0283,0.1565,-9.7799,-0.0041,-0.001,0.0125
12.450311257781445,-0.038099999999999995,0.1503,-9.7765,-0.0036999999999999997,-0.001,0.0125
12.460311507787695,-0.033100000000000004,0.1426,-9.7788,-0.0034999999999999996,-0.001,0.0126
12.470311757793946,-0.0342,0.1431,-9.7839,-0.0031,-0.0010999999999999998,0.0126
12.480312007800196,-0.0417,0.15,-9.777099999999999,-0.0029,-0.0012000000000000001,0.0126
12.490312257806446,-0.0272,0.1493,-9.7782,-0.0026,-0.0014,0.0126
12.500312507812696,-0.0299,0.1505,-9.7755,-0.0025,-0.0013,0.0126
12.510312757818946,-0.0273,0.14989999999999998,-9.7849,-0.0023,-0.0012000000000000001,0.0126
12.520313007825196,-0.0297,0.1482,-9.7911,-0.0023,-0.0010999999999999998,0.0126
12.530313257831446,-0.038900000000000004,0.15410000000000001,-9.7805,-0.0015,-0.0012000000000000001,0.0127
12.540313507837697,-0.0321,0.15239999999999998,-9.7848,-0.0017,-0.0012000000000000001,0.0127
12.550313757843947,-0.0327,0.1397,-9.7868,-0.0015,-0.0013,0.0127
12.560314007850197,-0.0388,0.149,-9.777800000000001,-0.0013,-0.0013,0.0127
12.570314257856447,-0.0301,0.1563,-9.773,-0.0009,-0.0014,0.0127
12.580314507862697,-0.0324,0.1477,-9.7801,-0.001,-0.0014,0.0126
12.590314757868947,-0.0277,0.1349,-9.7929,-0.001,-0.0012000000000000001,0.012799999999999999
12.600315007875198,-0.0342,0.1525,-9.7883,-0.00039999999999999996,-0.0015,0.012899999999999998
12.610315257881448,-0.034699999999999995,0.1664,-9.7776,0.00039999999999999996,-0.0018,0.012899999999999998
12.620315507887698,-0.0312,0.1558,-9.7804,0.00039999999999999996,-0.0017,0.012899999999999998
12.630315757893948,-0.0365,0.1436,-9.7734,0.0009,-0.0015999999999999999,0.013
12.640316007900198,-0.030299999999999997,0.1463,-9.7874,0.0009,-0.0015999999999999999,0.012899999999999998
12.650316257906448,-0.028699999999999996,0.14450000000000002,-9.7876,0.0007999999999999999,-0.0015999999999999999,0.012899999999999998
12.660316507912698,-0.0254,0.1349,-9.7926,0.001,-0.0015,0.0127
12.670316757918949,-0.0314,0.135,-9.7927,0.0014,-0.0015,0.012899999999999998
12.680317007925199,-0.027,0.15,-9.789100000000001,0.0019,-0.0015999999999999999,0.012899999999999998
12.690317257931449,-0.0243,0.1653,-9.786499999999998,0.0021999999999999997,-0.0017,0.0131
12.700317507937699,-0.0387,0.16720000000000002,-9.7769,0.0025,-0.0017,0.013
12.71031775794395,-0.030899999999999997,0.1568,-9.7794,0.002,-0.0018,0.0132
12.7203180079502,-0.028200000000000003,0.1416,-9.7959,0.0017,-0.0017,0.0131
12.73031825795645,-0.0337,0.1438,-9.796899999999999,0.002,-0.0018,0.0132
12.7403185079627,-0.027399999999999997,0.1478,-9.7919,0.0023,-0.0019,0.0131
12.75031875796895,-0.022,0.1456,-9.796100000000001,0.0025,-0.0019,0.0131
12.7603190079752,-0.0279,0.14300000000000002,-9.7914,0.0028,-0.0018,0.0131
12.77031925798145,-0.021599999999999998,0.1603,-9.794799999999999,0.0028,-0.0017,0.0132
12.7803195079877,-0.0337,0.16770000000000002,-9.7849,0.003,-0.0017,0.0131
12.79031975799395,-0.0294,0.155,-9.7866,0.0026999999999999997,-0.0017,0.013300000000000001
12.8003200080002,-0.0278,0.1458,-9.796000000000001,0.0025,-0.0017,0.0132
12.81032025800645,-0.0314,0.15309999999999999,-9.8019,0.0024000000000000002,-0.0017,0.0134
12.820320508012701,-0.0273,0.16069999999999998,-9.7903,0.0026,-0.002,0.013300000000000001
12.830320758018951,-0.0231,0.1472,-9.794899999999998,0.0021999999999999997,-0.0019,0.0134
12.840321008025201,-0.027,0.1457,-9.7921,0.0026,-0.0018,0.0134
12.850321258031451,-0.0235,0.1605,-9.802,0.0026,-0.0017,0.0135
12.860321508037702,-0.0332,0.16319999999999998,-9.79,0.0029,-0.0019,0.0134
12.870321758043952,-0.026,0.1498,-9.7929,0.0026999999999999997,-0.0019,0.0134
12.880322008050202,-0.0289,0.1409,-9.7955,0.0028,-0.0018,0.0134
12.890322258056452,-0.030600000000000002,0.1534,-9.7976,0.0029,-0.0018,0.0135
12.900322508062702,-0.0273,0.1582,-9.7898,0.0029,-0.0019,0.0134
12.910322758068952,-0.0208,0.15209999999999999,-9.786499999999998,0.0029,-0.002,0.0134
12.920323008075203,-0.021599999999999998,0.149,-9.7914,0.0026999999999999997,-0.0018,0.0135
12.930323258081453,-0.024499999999999997,0.151,-9.8025,0.0026999999999999997,-0.0017,0.0135
12.940323508087703,-0.024,0.1673,-9.795,0.0029,-0.0018,0.013699999999999999
12.950323758093953,-0.0273,0.1559,-9.7986,0.0026999999999999997,-0.0019,0.0136
12.960324008100203,-0.025099999999999997,0.1451,-9.7921,0.003,-0.0019,0.013699999999999999
12.970324258106453,-0.027099999999999996,0.1518,-9.791,0.003,-0.0019,0.013699999999999999
12.980324508112703,-0.0247,0.1565,-9.787700000000001,0.0033,-0.002,0.013699999999999999
12.990324758118954,-0.0264,0.14959999999999998,-9.7868,0.0031999999999999997,-0.0019,0.0136
13.000325008125204,-0.016,0.14059999999999997,-9.7943,0.0034999999999999996,-0.0019,0.0136
13.010325258131454,-0.0247,0.1549,-9.7922,0.0039,-0.0021,0.013699999999999999
13.020325508137704,-0.0229,0.1639,-9.793,0.0045000000000000005,-0.0023,0.0138
13.030325758143954,-0.024,0.1696,-9.7866,0.0046,-0.0021,0.013699999999999999
13.040326008150204,-0.028499999999999998,0.15209999999999999,-9.7853,0.0041,-0.0021,0.0138
13.050326258156455,-0.023,0.1353,-9.7956,0.0041,-0.0021,0.013699999999999999
13.060326508162705,-0.0215,0.1469,-9.7973,0.0045000000000000005,-0.002,0.0138
13.070326758168955,-0.0178,0.1473,-9.7964,0.005,-0.002,0.013699999999999999
13.080327008175205,-0.0194,0.1478,-9.7959,0.0055,-0.0021,0.0138
13.090327258181455,-0.0232,0.16590000000000002,-9.7972,0.0057,-0.0021,0.0139
13.100327508187705,-0.020399999999999998,0.1779,-9.7928,0.0050999999999999995,-0.0021999999999999997,0.013999999999999999
13.110327758193955,-0.025599999999999998,0.17279999999999998,-9.793899999999999,0.005,-0.0021999999999999997,0.0139
13.120328008200206,-0.0229,0.1586,-9.794500000000001,0.0043,-0.0021999999999999997,0.013999999999999999
13.130328258206456,-0.0218,0.1411,-9.806199999999999,0.0043,-0.0021999999999999997,0.0139
13.140328508212706,-0.0304,0.1568,-9.8028,0.0048000000000000004,-0.0021999999999999997,0.013999999999999999
13.150328758218956,-0.013999999999999999,0.1676,-9.796100000000001,0.005,-0.0024000000000000002,0.0139
13.160329008225206,-0.0184,0.158,-9.7955,0.0050999999999999995,-0.0025,0.0139
13.170329258231456,-0.0224,0.1587,-9.794500000000001,0.005,-0.0023,0.013999999999999999
13.180329508237707,-0.0143,0.1692,-9.800799999999999,0.0048000000000000004,-0.0021999999999999997,0.014100000000000001
13.190329758243957,-0.0199,0.1697,-9.8001,0.0048000000000000004,-0.0021999999999999997,0.014100000000000001
13.200330008250207,-0.0196,0.1616,-9.8012,0.0043,-0.0021999999999999997,0.0142
13.210330258256457,-0.0215,0.15259999999999999,-9.8071,0.004,-0.0021999999999999997,0.014100000000000001
13.220330508262707,-0.026,0.1652,-9.8022,0.0039,-0.0023,0.0142
13.230330758268957,-0.0171,0.1739,-9.7973,0.0038,-0.0023,0.0142
13.240331008275207,-0.021,0.1639,-9.79,0.0036,-0.0024000000000000002,0.0142
13.250331258281458,-0.012199999999999999,0.15969999999999998,-9.797500000000001,0.0033,-0.0021999999999999997,0.0143
13.260331508287708,-0.017599999999999998,0.1669,-9.8134,0.0031,-0.002,0.0143
13.270331758293958,-0.0179,0.1819,-9.8096,0.0033,-0.0021999999999999997,0.0143
13.280332008300208,-0.0236,0.1712,-9.8024,0.0025,-0.0024000000000000002,0.0143
13.290332258306458,-0.018799999999999997,0.15009999999999998,-9.7989,0.0025,-0.0025,0.0143
13.300332508312708,-0.019200000000000002,0.16540000000000002,-9.798,0.0026,-0.0023,0.0144
13.310332758318959,-0.0201,0.17099999999999999,-9.7938,0.0026999999999999997,-0.0024000000000000002,0.0144
13.320333008325209,-0.0113,0.15510000000000002,-9.7912,0.0026999999999999997,-0.0024000000000000002,0.0144
13.330333258331459,-0.014100000000000001,0.153,-9.804400000000001,0.003,-0.0021999999999999997,0.0146
13.340333508337709,-0.0165,0.1665,-9.8139,0.003,-0.0021,0.014499999999999999
13.35033375834396,-0.0126,0.1798,-9.8119,0.0033,-0.0023,0.0147
13.36033400835021,-0.025599999999999998,0.17099999999999999,-9.8001,0.0034999999999999996,-0.0024000000000000002,0.0146
13.37033425835646,-0.0106,0.155,-9.798399999999999,0.0034999999999999996,-0.0023,0.0147
13.38033450836271,-0.019200000000000002,0.1599,-9.7994,0.0036999999999999997,-0.0021,0.0147
13.39033475836896,-0.018699999999999998,0.1698,-9.7955,0.0041,-0.0023,0.0147
13.40033500837521,-0.0036999999999999997,0.1644,-9.812999999999999,0.0038,-0.0021,0.014799999999999999
13.41033525838146,-0.0226,0.15839999999999999,-9.811,0.004,-0.0023,0.0147
13.42033550838771,-0.018699999999999998,0.1535,-9.7998,0.0039,-0.0026,0.0147
13.43033575839396,-0.005399999999999999,0.1685,-9.806199999999999,0.004399999999999999,-0.0026,0.014899999999999998
13.44033600840021,-0.0184,0.1819,-9.8017,0.0043,-0.0023,0.0147
13.45033625840646,-0.0185,0.1587,-9.793899999999999,0.0038,-0.0024000000000000002,0.014899999999999998
13.460336508412711,-0.014799999999999999,0.16019999999999998,-9.8021,0.004,-0.0024000000000000002,0.014899999999999998
13.470336758418961,-0.0085,0.1815,-9.8057,0.0041,-0.0023,0.014999999999999998
13.480337008425211,-0.009000000000000001,0.1707,-9.811599999999999,0.0036999999999999997,-0.0023,0.014899999999999998
13.490337258431461,-0.0181,0.1505,-9.8004,0.0036,-0.0023,0.014999999999999998
13.500337508437712,-0.0031999999999999997,0.16019999999999998,-9.8042,0.0038,-0.0021999999999999997,0.014999999999999998
13.510337758443962,-0.012799999999999999,0.1769,-9.8085,0.004,-0.0023,0.0151
13.520338008450212,-0.0165,0.16949999999999998,-9.7976,0.0041,-0.0024000000000000002,0.014899999999999998
13.530338258456462,-0.0185,0.1576,-9.7964,0.0042,-0.0024000000000000002,0.014999999999999998
13.540338508462712,-0.0168,0.1581,-9.799299999999999,0.004399999999999999,-0.0024000000000000002,0.014999999999999998
13.550338758468962,-0.0104,0.1709,-9.8063,0.004399999999999999,-0.0025,0.014999999999999998
13.560339008475212,-0.0146,0.16570000000000001,-9.8022,0.0045000000000000005,-0.0026,0.014899999999999998
13.570339258481463,-0.006999999999999999,0.16019999999999998,-9.804400000000001,0.0043,-0.0026,0.014999999999999998
13.580339508487713,-0.0076,0.1703,-9.8088,0.004,-0.0025,0.0151
13.590339758493963,-0.0115,0.1785,-9.8067,0.0039,-0.0025,0.0151
13.600340008500213,-0.012,0.17329999999999998,-9.8028,0.0041,-0.0025,0.0151
13.610340258506463,-0.0114,0.1658,-9.8003,0.0039,-0.0024000000000000002,0.0152
13.620340508512713,-0.0111,0.1611,-9.801400000000001,0.0042,-0.0024000000000000002,0.0152
13.630340758518964,-0.0132,0.16570000000000001,-9.809199999999999,0.0042,-0.0024000000000000002,0.0152
13.640341008525214,-0.0093,0.1636,-9.7964,0.0046,-0.0025,0.0151
13.650341258531464,-0.0057,0.16119999999999998,-9.8027,0.0045000000000000005,-0.0025,0.0151
13.660341508537714,-0.0045000000000000005,0.1626,-9.8067,0.004699999999999999,-0.0025,0.0151
13.670341758543964,-0.0112,0.175,-9.8085,0.004699999999999999,-0.0026,0.0152
13.680342008550214,-0.008799999999999999,0.1822,-9.8039,0.005,-0.0026999999999999997,0.0152
13.690342258556464,-0.0126,0.1712,-9.8035,0.0045000000000000005,-0.0026999999999999997,0.0152
13.700342508562715,-0.0087,0.1646,-9.8043,0.0046,-0.0026999999999999997,0.015300000000000001
13.710342758568965,-0.0121,0.176,-9.804599999999999,0.0046,-0.0026999999999999997,0.015300000000000001
13.720343008575215,-0.0043,0.17049999999999998,-9.8011,0.0046,-0.0026999999999999997,0.015300000000000001
13.730343258581465,-0.0031999999999999997,0.1679,-9.8055,0.0043,-0.0026,0.015300000000000001
13.740343508587715,-0.006,0.1669,-9.809,0.0043,-0.0025,0.015300000000000001
13.750343758593965,-0.0046,0.1784,-9.8151,0.004,-0.0024000000000000002,0.015300000000000001
13.760344008600216,-0.0078,0.1851,-9.807699999999999,0.0042,-0.0026,0.015300000000000001
13.770344258606466,-0.008799999999999999,0.1763,-9.803099999999999,0.0036999999999999997,-0.0026999999999999997,0.015300000000000001
13.780344508612716,-0.009899999999999999,0.16369999999999998,-9.8034,0.0036,-0.0026999999999999997,0.015300000000000001
