Time [s],ACC X [m/s^2],ACC Y [m/s^2],ACC Z [m/s^2],GYRO X [rad/s],GYRO Y [rad/s],GYRO Z [rad/s]
0.0,0.0169,0.09829999999999998,-9.863199999999999,-0.0337,0.0012000000000000001,-0.0887
0.010000250006250157,-0.0031999999999999997,0.0944,-9.847499999999998,-0.0341,-0.00039999999999999996,-0.089
0.020000500012500314,-0.0239,0.021599999999999998,-9.7141,-0.0327,-0.0013,-0.0891
0.030000750018750473,0.0457,0.015799999999999998,-9.8249,-0.0326,0.0007999999999999999,-0.0888
0.04000100002500063,0.0199,0.029799999999999997,-9.8652,-0.031799999999999995,0.0023,-0.08850000000000001
0.050001250031250784,-0.0164,0.0643,-9.8769,-0.0294,0.00039999999999999996,-0.0892
0.060001500037500946,-0.024399999999999998,0.0278,-9.7408,-0.0279,-0.0015,-0.0895
0.0700017500437511,0.027399999999999997,0.0112,-9.7994,-0.0268,-0.0005,-0.0892
0.08000200005000126,0.0417,0.0458,-9.8628,-0.0263,0.0018,-0.0893
0.09000225005625141,-0.0436,0.0649,-9.859399999999999,-0.026099999999999998,0.0006000000000000001,-0.0892
0.10000250006250157,-0.006,0.039,-9.7576,-0.025300000000000003,-0.0012000000000000001,-0.08940000000000001
0.11000275006875172,0.0505,0.012799999999999999,-9.8225,-0.025,-0.0005,-0.0899
0.12000300007500189,0.0181,0.0046,-9.8917,-0.024499999999999997,0.0015999999999999999,-0.0895
0.13000325008125205,-0.053799999999999994,0.0449,-9.8207,-0.0225,0.0006000000000000001,-0.0899
0.1400035000875022,0.0377,0.0604,-9.7632,-0.0219,-0.0010999999999999998,-0.08940000000000001
0.15000375009375236,-0.0057,0.030699999999999998,-9.776,-0.0218,-0.001,-0.0902
0.1600040001000025,0.0349,0.0275,-9.883799999999999,-0.0231,0.0013,-0.0896
0.17000425010625267,-0.0445,0.0409,-9.8365,-0.021699999999999997,0.0007999999999999999,-0.09
0.18000450011250282,0.0171,0.0555,-9.7863,-0.0212,-0.001,-0.0896
0.19000475011875298,0.011,-0.0012000000000000001,-9.7714,-0.0201,-0.0012000000000000001,-0.0903
0.20000500012500314,0.0165,0.0073999999999999995,-9.8877,-0.0199,0.0012000000000000001,-0.0899
0.2100052501312533,-0.0076,0.0518,-9.8218,-0.0194,0.0007999999999999999,-0.0901
0.22000550013750345,0.0029,0.08099999999999999,-9.8068,-0.0194,-0.0009,-0.09
0.2300057501437536,-0.0185,0.0078,-9.717,-0.0184,-0.0015,-0.0904
0.24000600015000378,0.036000000000000004,-0.0103,-9.8846,-0.019200000000000002,0.0009,-0.09
0.25000625015625394,-0.0184,0.015300000000000001,-9.8401,-0.0177,0.0009,-0.0901
0.2600065001625041,0.0078,0.0498,-9.8455,-0.017499999999999998,-0.0007,-0.0906
0.27000675016875425,-0.015300000000000001,-0.008,-9.749099999999999,-0.0157,-0.0014,-0.0905
0.2800070001750044,0.0157,-0.0058,-9.8547,-0.016,0.00030000000000000003,-0.0903
0.29000725018125456,0.0062,0.0438,-9.8422,-0.0151,0.0009,-0.0899
0.3000075001875047,-0.0089,0.0805,-9.848700000000001,-0.0146,-0.0010999999999999998,-0.0905
0.31000775019375487,-0.014999999999999998,0.0018,-9.7346,-0.0138,-0.0019,-0.0909
0.320008000200005,0.025,-0.0439,-9.814,-0.0139,-0.00039999999999999996,-0.0903
0.3300082502062552,0.034,0.0111,-9.8709,-0.012799999999999999,0.0015999999999999999,-0.0901
0.34000850021250534,-0.047,0.0625,-9.870099999999999,-0.012199999999999999,-0.00019999999999999998,-0.0906
0.3500087502187555,-0.0057,0.018699999999999998,-9.7653,-0.0116,-0.0019,-0.0909
0.36000900022500565,0.0119,-0.0281,-9.7997,-0.0117,-0.0013,-0.0909
0.3700092502312558,0.0409,0.0085,-9.8673,-0.0116,0.0009,-0.0906
0.38000950023750596,-0.0469,0.038400000000000004,-9.8338,-0.009899999999999999,-0.0,-0.0909
0.3900097502437561,-0.0104,0.018000000000000002,-9.7579,-0.009399999999999999,-0.0013,-0.0906
0.40001000025000627,0.0248,-0.0087,-9.8188,-0.01,-0.0009,-0.0909
0.4100102502562564,0.0107,0.0162,-9.8999,-0.01,0.0009,-0.0906
0.4200105002625066,-0.0351,0.043399999999999994,-9.8665,-0.0091,9.999999999999999e-05,-0.0909
0.43001075026875674,-0.0005,0.027999999999999997,-9.7957,-0.009000000000000001,-0.0017,-0.0906
0.4400110002750069,0.0067,-0.0218,-9.7684,-0.0086,-0.0018,-0.0914
0.45001125028125705,0.030299999999999997,-0.020900000000000002,-9.8954,-0.007899999999999999,0.0007999999999999999,-0.0909
0.4600115002875072,-0.0486,0.039,-9.8307,-0.0067,0.00030000000000000003,-0.091
0.47001175029375736,0.012199999999999999,0.0604,-9.8179,-0.0060999999999999995,-0.0010999999999999998,-0.0909
0.48001200030000757,-0.027099999999999996,-0.0073,-9.7562,-0.0062,-0.0019,-0.09129999999999999
0.4900122503062577,0.0413,-0.009000000000000001,-9.879999999999999,-0.0063999999999999994,0.00019999999999999998,-0.09079999999999999
0.5000125003125079,-0.0286,0.026699999999999998,-9.8697,-0.0053,0.0005,-0.0912
0.510012750318758,-0.0093,0.051000000000000004,-9.8325,-0.0046,-0.0009,-0.0911
0.5200130003250082,-0.0177,-0.0023,-9.7569,-0.0039,-0.0013,-0.09129999999999999
0.5300132503312583,0.029300000000000003,-0.009600000000000001,-9.898,-0.0036999999999999997,0.0007,-0.09079999999999999
0.5400135003375085,-0.0247,0.039599999999999996,-9.8563,-0.0021999999999999997,0.0009,-0.09079999999999999
0.5500137503437587,-0.006,0.06570000000000001,-9.8493,-0.0015999999999999999,-0.0009,-0.0911
0.5600140003500088,-0.0223,-0.0182,-9.7581,-0.00019999999999999998,-0.0015,-0.0915
0.570014250356259,0.01,-0.0224,-9.8426,0.0,0.00039999999999999996,-0.09079999999999999
0.5800145003625091,0.0229,0.0304,-9.8732,0.0007,0.0014,-0.09079999999999999
0.5900147503687593,-0.040499999999999994,0.0826,-9.8753,0.0007999999999999999,-0.0005,-0.0911
0.6000150003750094,-0.0241,0.0222,-9.7459,0.0013,-0.0021999999999999997,-0.0915
0.6100152503812596,0.0163,-0.0059,-9.8306,0.001,-0.0007999999999999999,-0.0911
0.6200155003875097,0.0277,0.0194,-9.8675,0.0010999999999999998,0.0010999999999999998,-0.0909
0.6300157503937599,-0.0473,0.0497,-9.8683,0.0026999999999999997,0.00019999999999999998,-0.0911
0.64001600040001,-0.0163,0.053899999999999997,-9.773299999999999,0.004,-0.0012000000000000001,-0.0907
0.6500162504062602,0.0297,0.0071,-9.8393,0.003,-0.0005,-0.0914
0.6600165004125104,0.0142,0.026899999999999997,-9.872300000000001,0.0034999999999999996,0.0015999999999999999,-0.0907
0.6700167504187605,-0.0531,0.06949999999999999,-9.8646,0.0041,0.0009,-0.0911
0.6800170004250107,-0.004,0.0775,-9.7876,0.0041,-0.0007999999999999999,-0.0906
0.6900172504312608,-0.0012000000000000001,0.0043,-9.808,0.0029,-0.0006000000000000001,-0.0915
0.700017500437511,0.0241,-0.0039,-9.9065,0.0029,0.0018,-0.09079999999999999
0.7100177504437611,-0.047,0.071,-9.8684,0.0049,0.0012000000000000001,-0.0911
0.7200180004500113,-0.0171,0.075,-9.7968,0.0049,-0.00039999999999999996,-0.0909
0.7300182504562615,-0.004399999999999999,0.015899999999999997,-9.787899999999999,0.0042,-0.0007,-0.091
0.7400185004625116,0.0103,0.0029,-9.912700000000001,0.0049,0.0014,-0.09079999999999999
0.7500187504687618,-0.051500000000000004,0.0848,-9.8425,0.005399999999999999,0.00039999999999999996,-0.0906
0.7600190004750119,0.0060999999999999995,0.10020000000000001,-9.8001,0.0055,-0.0009,-0.0909
0.7700192504812621,-0.032299999999999995,0.0083,-9.755999999999998,0.0057,-0.0007,-0.0912
0.7800195004875122,0.0232,0.0304,-9.8792,0.0056,0.0015999999999999999,-0.0901
0.7900197504937624,-0.039,0.09430000000000001,-9.8528,0.0066,0.0015999999999999999,-0.0906
0.8000200005000125,0.0034999999999999996,0.0902,-9.8499,0.0062,0.00019999999999999998,-0.0906
0.8100202505062627,-0.0358,0.014999999999999998,-9.7514,0.0071,-0.0005,-0.09079999999999999
0.8200205005125129,0.0191,0.028499999999999998,-9.870800000000001,0.0062,0.0015999999999999999,-0.0906
0.830020750518763,-0.0081,0.0605,-9.8574,0.006999999999999999,0.0023,-0.0904
0.8400210005250132,-0.0289,0.1261,-9.855899999999998,0.006999999999999999,0.0007,-0.0904
0.8500212505312633,-0.049499999999999995,0.0558,-9.7342,0.0069,-0.0005,-0.0909
0.8600215005375135,0.0118,0.030699999999999998,-9.835099999999999,0.0057,0.001,-0.0901
0.8700217505437636,0.0057,0.0701,-9.8826,0.0057,0.0023,-0.0901
0.8800220005500138,-0.0525,0.10300000000000001,-9.8664,0.004699999999999999,0.0005,-0.0905
0.8900222505562639,-0.0355,0.0423,-9.738,0.0058,-0.001,-0.0904
0.9000225005625141,0.023299999999999998,0.038,-9.8284,0.0058,9.999999999999999e-05,-0.0903
0.9100227505687642,0.0086,0.0576,-9.8666,0.005,0.0024000000000000002,-0.0902
0.9200230005750144,-0.04889999999999999,0.0759,-9.8841,0.0058,0.0015,-0.0901
0.9300232505812646,-0.0351,0.0914,-9.767199999999999,0.0072,-0.00019999999999999998,-0.0903
0.9400235005875147,-0.0015,0.0329,-9.8142,0.0059,0.0006000000000000001,-0.0905
0.9500237505937649,0.007899999999999999,0.0348,-9.873,0.0063,0.0028,-0.0899
0.9600240006000151,-0.0555,0.10679999999999999,-9.8776,0.0081,0.0021999999999999997,-0.0901
0.9700242506062653,-0.032,0.0954,-9.7681,0.0076,0.0005,-0.09
0.9800245006125154,-0.0034999999999999996,0.032299999999999995,-9.8086,0.0077,0.0005,-0.0903
0.9900247506187656,-0.0031999999999999997,0.051000000000000004,-9.8759,0.0086,0.0026999999999999997,-0.0898
1.0000250006250158,-0.0576,0.10809999999999999,-9.8634,0.0097,0.0024000000000000002,-0.0899
1.010025250631266,-0.0152,0.1162,-9.8178,0.0101,0.0007999999999999999,-0.0896
1.020025500637516,-0.0248,0.054799999999999995,-9.7837,0.010199999999999999,0.00030000000000000003,-0.0901
1.0300257506437662,0.0202,0.0593,-9.911399999999999,0.0105,0.0028,-0.0893
1.0400260006500164,-0.0628,0.10070000000000001,-9.847499999999998,0.0124,0.0026999999999999997,-0.0898
1.0500262506562665,-0.0095,0.1265,-9.8178,0.0125,0.0013,-0.0892
1.0600265006625167,-0.0294,0.0772,-9.7642,0.0121,0.0005,-0.0899
1.0700267506687668,0.0026,0.0804,-9.8848,0.0116,0.0029,-0.0893
1.080027000675017,-0.0563,0.11460000000000001,-9.824,0.0124,0.003,-0.0891
1.0900272506812672,-0.009399999999999999,0.1593,-9.8295,0.0117,0.0015999999999999999,-0.0891
1.1000275006875173,-0.0631,0.0788,-9.7356,0.0115,0.001,-0.08940000000000001
1.1100277506937675,0.014999999999999998,0.0746,-9.8593,0.0117,0.0029,-0.0883
1.1200280007000176,-0.025099999999999997,0.1376,-9.8388,0.0121,0.0036,-0.0886
1.1300282507062678,-0.038099999999999995,0.15309999999999999,-9.850499999999998,0.0116,0.0019,-0.0886
1.140028500712518,-0.059199999999999996,0.0939,-9.7343,0.0123,0.0012000000000000001,-0.0889
1.150028750718768,0.01,0.0668,-9.8446,0.0114,0.0031,-0.08850000000000001
1.1600290007250182,-0.0135,0.0982,-9.8766,0.0115,0.0046,-0.0882
1.1700292507312684,-0.043,0.1614,-9.868599999999999,0.0114,0.0031,-0.08850000000000001
1.1800295007375186,-0.0642,0.1159,-9.7424,0.0119,0.0015999999999999999,-0.0886
1.1900297507437687,-0.006999999999999999,0.0634,-9.7971,0.0111,0.0021999999999999997,-0.0882
1.2000300007500189,-0.0095,0.12019999999999999,-9.858699999999999,0.0105,0.004,-0.0875
1.210030250756269,-0.07780000000000001,0.1732,-9.850299999999999,0.0104,0.0031999999999999997,-0.0881
1.2200305007625192,-0.019,0.1437,-9.7646,0.009600000000000001,0.0015999999999999999,-0.08789999999999999
1.2300307507687693,-0.0247,0.0935,-9.7846,0.0082,0.002,-0.0878
1.2400310007750195,0.0029,0.1237,-9.8814,0.0063,0.004399999999999999,-0.08739999999999999
1.2500312507812696,-0.0844,0.1449,-9.819600000000001,0.0071,0.0034,-0.0878
1.2600315007875198,-0.0196,0.1586,-9.777,0.0057,0.0025,-0.087
1.27003175079377,-0.030899999999999997,0.1105,-9.778699999999999,0.0045000000000000005,0.0028,-0.0875
1.28003200080002,0.0010999999999999998,0.1103,-9.9078,0.0041,0.005399999999999999,-0.0871
1.2900322508062703,-0.0839,0.1497,-9.847999999999999,0.004,0.004399999999999999,-0.0872
1.3000325008125204,-0.0289,0.1722,-9.789399999999999,0.004,0.0026999999999999997,-0.087
1.3100327508187706,-0.0584,0.0914,-9.7446,0.0028,0.0025,-0.08739999999999999
1.3200330008250207,-0.0063999999999999994,0.08499999999999999,-9.8704,0.0028,0.0046,-0.0866
1.3300332508312709,-0.061,0.15610000000000002,-9.8227,0.003,0.0045000000000000005,-0.08689999999999999
1.340033500837521,-0.0254,0.1726,-9.8059,0.0024000000000000002,0.0033,-0.08639999999999999
1.3500337508437712,-0.0691,0.0924,-9.7517,0.0021999999999999997,0.0028,-0.08689999999999999
1.3600340008500214,-0.007499999999999999,0.1048,-9.8733,0.0015999999999999999,0.0046,-0.0861
1.3700342508562715,-0.05999999999999999,0.14129999999999998,-9.853,0.0015,0.005,-0.08639999999999999
1.3800345008625217,-0.028499999999999998,0.1706,-9.836699999999999,0.0019,0.0036,-0.0862
1.3900347508687718,-0.05910000000000001,0.0877,-9.7204,0.0024000000000000002,0.0031999999999999997,-0.08679999999999999
1.400035000875022,-0.0055,0.0732,-9.8415,0.002,0.0050999999999999995,-0.0857
1.4100352508812721,-0.0334,0.1553,-9.8237,0.0029,0.0058,-0.0858
1.4200355008875223,-0.0523,0.1936,-9.8284,0.0021,0.0042,-0.086
1.4300357508937724,-0.0767,0.09749999999999999,-9.7058,0.0033,0.0029,-0.0861
1.4400360009000226,-0.015899999999999997,0.1043,-9.8036,0.0026,0.0043,-0.0854
1.4500362509062728,-0.0165,0.13470000000000001,-9.8339,0.0031999999999999997,0.0059,-0.0853
1.460036500912523,-0.06369999999999999,0.1742,-9.8394,0.0031,0.004399999999999999,-0.0854
1.470036750918773,-0.0761,0.1418,-9.7022,0.0049,0.003,-0.0853
1.4800370009250232,0.0024000000000000002,0.105,-9.797799999999999,0.003,0.0039,-0.0852
1.4900372509312734,-0.0109,0.12539999999999998,-9.8467,0.0036,0.0062,-0.0847
1.5000375009375235,-0.0897,0.1779,-9.8269,0.0033,0.0052,-0.0849
1.5100377509437737,-0.0477,0.16570000000000001,-9.7327,0.0029,0.0036999999999999997,-0.0845
1.5200380009500238,-0.0243,0.0995,-9.761899999999999,0.0033,0.0042,-0.0848
1.530038250956274,-0.012899999999999998,0.1109,-9.858699999999999,0.0038,0.0063999999999999994,-0.0842
1.5400385009625241,-0.1031,0.1484,-9.817499999999999,0.004,0.0058,-0.0843
1.5500387509687743,-0.0312,0.1782,-9.755700000000001,0.004399999999999999,0.0041,-0.0838
1.5600390009750245,-0.0486,0.11839999999999999,-9.7426,0.0033,0.0036999999999999997,-0.0845
1.5700392509812746,-0.009899999999999999,0.0948,-9.8385,0.0024000000000000002,0.0057,-0.0837
1.5800395009875248,-0.095,0.1656,-9.8005,0.0039,0.0052,-0.0835
1.590039750993775,-0.029300000000000003,0.186,-9.767199999999999,0.0042,0.0041,-0.0834
1.600040001000025,-0.05739999999999999,0.0919,-9.7531,0.0034999999999999996,0.0038,-0.0839
1.6100402510062752,-0.021699999999999997,0.09169999999999999,-9.862400000000001,0.0036,0.0057,-0.083
1.6200405010125254,-0.06899999999999999,0.1704,-9.787899999999999,0.0046,0.0055,-0.0833
1.6300407510187755,-0.019,0.1893,-9.7653,0.004399999999999999,0.0045000000000000005,-0.083
1.6400410010250257,-0.10070000000000001,0.11349999999999999,-9.7106,0.0034999999999999996,0.0041,-0.08310000000000001
1.6500412510312759,-0.0109,0.1306,-9.843599999999999,0.002,0.0062,-0.0823
1.660041501037526,-0.06319999999999999,0.1846,-9.8119,0.0013,0.0059,-0.0826
1.6700417510437762,-0.0348,0.202,-9.7794,0.0010999999999999998,0.0043,-0.08270000000000001
1.6800420010500263,-0.0858,0.10809999999999999,-9.6853,0.0012000000000000001,0.0036999999999999997,-0.0828
1.6900422510562765,-0.034,0.1051,-9.7871,0.0006000000000000001,0.0056,-0.0817
1.7000425010625266,-0.037,0.1581,-9.803099999999999,0.0009,0.0063,-0.0817
1.7100427510687768,-0.0638,0.2104,-9.8496,0.0007999999999999999,0.0049,-0.0817
1.720043001075027,-0.0804,0.1198,-9.692599999999999,0.0006000000000000001,0.0034999999999999996,-0.0822
1.730043251081277,-0.022,0.0962,-9.7851,0.00039999999999999996,0.004699999999999999,-0.0814
1.7400435010875273,-0.0362,0.1557,-9.8157,0.0007,0.0065,-0.0813
1.7500437510937774,-0.0862,0.1907,-9.8347,0.00019999999999999998,0.0050999999999999995,-0.0814
1.7600440011000276,-0.0829,0.1345,-9.675799999999999,0.0015999999999999999,0.0034999999999999996,-0.0814
1.7700442511062777,-0.0234,0.0738,-9.7684,0.00030000000000000003,0.0045000000000000005,-0.08149999999999999
1.7800445011125279,-0.0369,0.1161,-9.819600000000001,0.0007999999999999999,0.0065,-0.0805
1.790044751118778,-0.10839999999999998,0.1739,-9.8277,0.0015,0.006,-0.0808
1.8000450011250282,-0.037899999999999996,0.15969999999999998,-9.7261,0.0023,0.004,-0.08059999999999999
1.8100452511312783,-0.0581,0.0915,-9.7442,0.001,0.004,-0.08099999999999999
1.8200455011375285,-0.039599999999999996,0.10300000000000001,-9.8278,0.0013,0.0062,-0.0804
1.8300457511437787,-0.1056,0.15189999999999998,-9.786999999999999,0.0021,0.0059,-0.0805
1.8400460011500288,-0.0339,0.1545,-9.7457,0.0026,0.004399999999999999,-0.08
1.850046251156279,-0.08149999999999999,0.1026,-9.741299999999999,0.0015999999999999999,0.0038,-0.0807
1.8600465011625291,-0.026899999999999997,0.10239999999999999,-9.839,0.0015999999999999999,0.0059,-0.08
1.8700467511687793,-0.1062,0.1649,-9.7618,0.0024000000000000002,0.005399999999999999,-0.0803
1.8800470011750294,-0.0294,0.1609,-9.7549,0.0025,0.0045000000000000005,-0.0798
1.8900472511812796,-0.0991,0.0888,-9.723999999999998,0.0024000000000000002,0.0041,-0.0802
1.9000475011875297,-0.02,0.1033,-9.8371,0.0023,0.0062,-0.0794
1.91004775119378,-0.08739999999999999,0.156,-9.7884,0.0026,0.0055,-0.0798
1.9200480012000303,-0.029999999999999995,0.18519999999999998,-9.7685,0.0026,0.004399999999999999,-0.0796
1.9300482512062804,-0.1156,0.11,-9.6823,0.0021,0.004,-0.0798
1.9400485012125306,-0.021,0.12179999999999999,-9.794,0.0,0.0058,-0.0788
1.9500487512187807,-0.0714,0.1515,-9.7915,0.00030000000000000003,0.006,-0.07919999999999999
1.960049001225031,-0.0712,0.211,-9.787700000000001,-0.00030000000000000003,0.0043,-0.079
1.970049251231281,-0.096,0.12119999999999999,-9.6538,0.0005,0.003,-0.0795
1.9800495012375312,-0.0332,0.1114,-9.767299999999999,-0.0010999999999999998,0.0045000000000000005,-0.0785
1.9900497512437814,-0.057499999999999996,0.15169999999999997,-9.7646,-0.00030000000000000003,0.0056,-0.0782
2.0000500012500315,-0.0676,0.1888,-9.7905,0.00030000000000000003,0.0043,-0.0784
2.0100502512562817,-0.089,0.1306,-9.6679,0.0012000000000000001,0.0029,-0.0787
2.020050501262532,-0.0343,0.07579999999999999,-9.7597,0.0014,0.0042,-0.0783
2.030050751268782,-0.046299999999999994,0.1373,-9.7784,0.0026999999999999997,0.0060999999999999995,-0.078
2.040051001275032,-0.1026,0.19269999999999998,-9.825399999999998,0.0023,0.005,-0.0777
2.0500512512812823,-0.0902,0.1544,-9.6735,0.0036,0.0029,-0.078
2.0600515012875324,-0.0411,0.09079999999999999,-9.7469,0.0015999999999999999,0.0034,-0.07780000000000001
2.0700517512937826,-0.0413,0.1098,-9.797799999999999,0.0018,0.0053,-0.07730000000000001
2.0800520013000328,-0.1163,0.1703,-9.793399999999998,0.0026999999999999997,0.004399999999999999,-0.07730000000000001
2.090052251306283,-0.0552,0.16349999999999998,-9.6753,0.0038,0.0026,-0.0772
2.100052501312533,-0.0605,0.0841,-9.7454,0.0028,0.0026999999999999997,-0.0774
2.1100527513187832,-0.05739999999999999,0.10859999999999999,-9.7822,0.0039,0.0046,-0.0766
2.1200530013250334,-0.0952,0.17880000000000001,-9.7762,0.0036,0.0038,-0.077
2.1300532513312835,-0.0477,0.1619,-9.7323,0.0039,0.0025,-0.0765
2.1400535013375337,-0.0832,0.0953,-9.7082,0.0041,0.0021,-0.077
2.150053751343784,-0.0228,0.1057,-9.8109,0.0036999999999999997,0.004399999999999999,-0.0764
2.160054001350034,-0.11499999999999999,0.14350000000000002,-9.7621,0.0046,0.0038,-0.0765
2.170054251356284,-0.0364,0.1689,-9.7402,0.0066,0.0029,-0.076
2.1800545013625343,-0.1026,0.0921,-9.708400000000001,0.0053,0.0021999999999999997,-0.0767
2.1900547513687845,-0.0349,0.1005,-9.8034,0.0052,0.0036999999999999997,-0.07569999999999999
2.2000550013750346,-0.1097,0.1442,-9.7306,0.0056,0.0034,-0.07629999999999999
2.210055251381285,-0.0388,0.1791,-9.7674,0.0056,0.0025,-0.0755
2.220055501387535,-0.11800000000000001,0.1,-9.671,0.0056,0.0015999999999999999,-0.07629999999999999
2.230055751393785,-0.025599999999999998,0.1119,-9.8074,0.0049,0.0033,-0.07529999999999999
2.2400560014000352,-0.084,0.13470000000000001,-9.792,0.0048000000000000004,0.0034,-0.0756
2.2500562514062854,-0.06989999999999999,0.186,-9.7942,0.0052,0.002,-0.0755
2.2600565014125356,-0.09899999999999999,0.09899999999999999,-9.6653,0.0056,0.0012000000000000001,-0.076
2.2700567514187857,-0.044,0.0849,-9.7815,0.0052,0.0029,-0.075
2.280057001425036,-0.0647,0.131,-9.7753,0.0059,0.0036,-0.0751
2.290057251431286,-0.0705,0.1991,-9.825000000000001,0.0058,0.0023,-0.0751
2.300057501437536,-0.11349999999999999,0.11599999999999999,-9.6611,0.0068,0.0007999999999999999,-0.07569999999999999
2.3100577514437863,-0.0342,0.1006,-9.7508,0.0048000000000000004,0.0019,-0.0749
2.3200580014500365,-0.0638,0.13019999999999998,-9.7735,0.004399999999999999,0.0036,-0.0747
2.3300582514562866,-0.1136,0.1865,-9.8375,0.0033,0.0025,-0.0747
2.340058501462537,-0.07029999999999999,0.17309999999999998,-9.6954,0.0021999999999999997,0.0006000000000000001,-0.0744
2.350058751468787,-0.0498,0.1298,-9.7621,-0.0007,0.0006000000000000001,-0.0751
2.360059001475037,-0.0478,0.15039999999999998,-9.761899999999999,-0.0013,0.0024000000000000002,-0.0742
2.3700592514812873,-0.124,0.1772,-9.774,-0.0017,0.0024000000000000002,-0.0742
2.3800595014875374,-0.0402,0.1934,-9.7253,-0.0026,0.0014,-0.0736
2.3900597514937876,-0.06899999999999999,0.0955,-9.7745,-0.0042,0.0015999999999999999,-0.0744
2.4000600015000377,-0.0487,0.1056,-9.823,-0.0041,0.0031999999999999997,-0.0738
2.410060251506288,-0.11889999999999999,0.1475,-9.7904,-0.004,0.002,-0.0741
2.420060501512538,-0.036000000000000004,0.17379999999999998,-9.7134,-0.0031999999999999997,0.0006000000000000001,-0.0736
2.430060751518788,-0.11599999999999999,0.10859999999999999,-9.707,-0.0043,0.00030000000000000003,-0.0741
2.4400610015250384,-0.037899999999999996,0.1026,-9.809,-0.0056,0.0023,-0.073
2.4500612515312885,-0.093,0.1652,-9.7861,-0.004399999999999999,0.0018,-0.07339999999999999
2.4600615015375387,-0.059699999999999996,0.1714,-9.7448,-0.0041,0.0006000000000000001,-0.0728
2.470061751543789,-0.1013,0.0865,-9.681,-0.0036,-0.0006000000000000001,-0.07339999999999999
2.480062001550039,-0.0259,0.0946,-9.8302,-0.0042,0.0017,-0.0724
2.490062251556289,-0.0961,0.141,-9.7668,-0.0031999999999999997,0.0015,-0.0728
2.5000625015625393,-0.053,0.1876,-9.779300000000001,-0.0043,0.0006000000000000001,-0.0728
2.5100627515687894,-0.1171,0.0577,-9.672,-0.0034999999999999996,-0.00030000000000000003,-0.0732
2.5200630015750396,-0.0239,0.0802,-9.8084,-0.0034999999999999996,0.0019,-0.0721
2.5300632515812898,-0.06939999999999999,0.1323,-9.796000000000001,-0.0015999999999999999,0.0024000000000000002,-0.0725
2.54006350158754,-0.0608,0.1823,-9.7929,-0.00019999999999999998,0.0005,-0.0723
2.55006375159379,-0.1446,0.09749999999999999,-9.6617,0.0007,-0.0007999999999999999,-0.0726
2.56006400160004,-0.010799999999999999,0.0999,-9.8019,-0.0014,0.0009,-0.0716
2.5700642516062904,-0.0957,0.13290000000000002,-9.7832,-0.0012000000000000001,0.0018,-0.0717
2.5800645016125405,-0.08729999999999999,0.18259999999999998,-9.816999999999998,-0.0015999999999999999,-0.0,-0.0716
2.5900647516187907,-0.0858,0.10959999999999999,-9.6493,-0.0007,-0.0017,-0.0721
2.600065001625041,-0.0366,0.0677,-9.7529,-0.0014,-9.999999999999999e-05,-0.07150000000000001
2.610065251631291,-0.06449999999999999,0.0858,-9.8097,-0.00039999999999999996,0.0017,-0.0714
2.620065501637541,-0.125,0.13879999999999998,-9.8162,0.00030000000000000003,0.00039999999999999996,-0.0712
2.6300657516437913,-0.0429,0.14450000000000002,-9.693999999999999,0.0006000000000000001,-0.0015,-0.07150000000000001
2.6400660016500415,-0.0771,0.08679999999999999,-9.757299999999999,-0.0009,-0.0009,-0.0717
2.6500662516562916,-0.0481,0.0982,-9.7886,-0.0005,0.0012000000000000001,-0.0708
2.6600665016625418,-0.1217,0.1532,-9.787999999999998,-0.00039999999999999996,0.00039999999999999996,-0.071
2.670066751668792,-0.05739999999999999,0.1483,-9.711699999999999,-0.0005,-0.0010999999999999998,-0.0705
2.680067001675042,-0.0745,0.0785,-9.7515,-0.0017,-0.0009,-0.0711
2.6900672516812922,-0.05739999999999999,0.0935,-9.8157,-0.0012000000000000001,0.0009,-0.07029999999999999
2.7000675016875424,-0.12769999999999998,0.1512,-9.7635,-0.0006000000000000001,-0.00019999999999999998,-0.07039999999999999
2.7100677516937925,-0.0524,0.1528,-9.7195,-0.00030000000000000003,-0.0015999999999999999,-0.06999999999999999
2.7200680017000427,-0.0884,0.0708,-9.7179,-0.0015,-0.0021999999999999997,-0.0709
2.730068251706293,-0.0372,0.0809,-9.8121,-0.0015999999999999999,-0.00019999999999999998,-0.06999999999999999
2.740068501712543,-0.1077,0.1479,-9.7681,-0.001,-0.00039999999999999996,-0.0705
2.750068751718793,-0.0643,0.1593,-9.7571,-0.0013,-0.0014,-0.0698
2.7600690017250433,-0.106,0.0919,-9.7011,-0.0017,-0.0023,-0.0702
2.7700692517312935,-0.0407,0.10939999999999998,-9.8286,-0.0026999999999999997,-0.0005,-0.0692
2.7800695017375436,-0.0904,0.1578,-9.7474,-0.0021,-0.0010999999999999998,-0.06949999999999999
2.790069751743794,-0.0554,0.17149999999999999,-9.7668,-0.0021999999999999997,-0.002,-0.0691
2.800070001750044,-0.1208,0.050699999999999995,-9.667399999999999,-0.00019999999999999998,-0.0026,-0.06939999999999999
2.810070251756294,-0.0378,0.09430000000000001,-9.8003,-0.00030000000000000003,-0.0005,-0.0683
2.8200705017625443,-0.073,0.1304,-9.811,-0.00019999999999999998,-0.00030000000000000003,-0.0688
2.8300707517687944,-0.08059999999999999,0.1797,-9.8201,-0.0006000000000000001,-0.0019,-0.0689
2.8400710017750446,-0.1156,0.0851,-9.6733,-0.0005,-0.0033,-0.0691
2.8500712517812947,-0.0263,0.0937,-9.7958,-0.0012000000000000001,-0.0017,-0.0684
2.860071501787545,-0.0799,0.121,-9.796000000000001,-0.0010999999999999998,-0.00039999999999999996,-0.0683
2.870071751793795,-0.0889,0.1601,-9.8302,-0.001,-0.0018,-0.068
2.880072001800045,-0.092,0.10389999999999999,-9.6705,0.0010999999999999998,-0.0034,-0.0683
2.8900722518062953,-0.043199999999999995,0.0838,-9.8064,9.999999999999999e-05,-0.0024000000000000002,-0.0677
2.9000725018125455,-0.08209999999999999,0.10590000000000001,-9.7864,0.0006000000000000001,-0.001,-0.0676
2.9100727518187957,-0.09899999999999999,0.1505,-9.829699999999999,0.0006000000000000001,-0.002,-0.0674
2.920073001825046,-0.0629,0.1309,-9.7023,0.0010999999999999998,-0.0034999999999999996,-0.0672
2.930073251831296,-0.0602,0.1001,-9.765,-0.00030000000000000003,-0.003,-0.0676
2.940073501837546,-0.0647,0.0896,-9.7967,-0.00019999999999999998,-0.0012000000000000001,-0.0671
2.9500737518437963,-0.1099,0.1204,-9.8024,0.0007999999999999999,-0.002,-0.067
2.9600740018500464,-0.0602,0.131,-9.7069,0.0015999999999999999,-0.0034,-0.067
2.9700742518562966,-0.0741,0.0581,-9.754,0.0005,-0.0031,-0.0675
2.9800745018625467,-0.0523,0.0652,-9.815999999999999,0.0014,-0.0010999999999999998,-0.0666
2.990074751868797,-0.1196,0.15510000000000002,-9.7746,0.0019,-0.002,-0.0668
3.000075001875047,-0.0421,0.1397,-9.7461,0.0015,-0.0033,-0.0665
3.010075251881297,-0.10219999999999999,0.07680000000000001,-9.7507,0.0007,-0.0033,-0.0666
3.0200755018875474,-0.030600000000000002,0.086,-9.843,0.0005,-0.0010999999999999998,-0.066
3.0300757518937975,-0.1154,0.13019999999999998,-9.793399999999998,0.0014,-0.0021,-0.0664
3.0400760019000477,-0.0624,0.10759999999999999,-9.770900000000001,0.0021999999999999997,-0.0034999999999999996,-0.066
3.050076251906298,-0.09,0.0398,-9.722999999999999,0.0036,-0.0036,-0.0664
3.060076501912548,-0.0546,0.0781,-9.8132,0.005,-0.0017,-0.0656
3.070076751918798,-0.0866,0.1342,-9.7843,0.005399999999999999,-0.0024000000000000002,-0.066
3.0800770019250483,-0.05419999999999999,0.1697,-9.8137,0.005399999999999999,-0.0033,-0.06570000000000001
3.0900772519312985,-0.127,0.0638,-9.6819,0.0058,-0.0042,-0.06620000000000001
3.1000775019375486,-0.0166,0.0901,-9.816999999999998,0.005,-0.0024000000000000002,-0.0652
3.1100777519437988,-0.0912,0.1104,-9.8015,0.0049,-0.002,-0.0655
3.120078001950049,-0.0642,0.15560000000000002,-9.818200000000001,0.0057,-0.0031,-0.0654
3.130078251956299,-0.11069999999999999,0.0654,-9.6836,0.0065,-0.004,-0.0658
3.1400785019625492,-0.0419,0.0775,-9.783999999999999,0.0056,-0.0029,-0.0647
3.1500787519687994,-0.07039999999999999,0.117,-9.794500000000001,0.006,-0.0014,-0.065
3.1600790019750495,-0.0842,0.1452,-9.8446,0.0067,-0.0026,-0.0648
3.1700792519812997,-0.0845,0.0949,-9.7101,0.0068,-0.004,-0.0653
3.18007950198755,-0.048299999999999996,0.0625,-9.808,0.0059,-0.0031,-0.0648
3.1900797519938,-0.08159999999999999,0.1015,-9.7767,0.0069,-0.0019,-0.0648
3.20008000200005,-0.096,0.1479,-9.8192,0.0068,-0.0026,-0.06449999999999999
3.2100802520063003,-0.0673,0.1237,-9.7023,0.0071,-0.0041,-0.0647
3.2200805020125505,-0.0594,0.0765,-9.7765,0.0058,-0.0034999999999999996,-0.0647
3.2300807520188006,-0.06620000000000001,0.07730000000000001,-9.8066,0.0058,-0.0019,-0.06449999999999999
3.240081002025051,-0.0947,0.1216,-9.832799999999999,0.0067,-0.0026,-0.0642
3.250081252031301,-0.0582,0.1389,-9.7412,0.007499999999999999,-0.0038,-0.0643
3.260081502037551,-0.0837,0.09,-9.7849,0.0053,-0.0036999999999999997,-0.0644
3.2700817520438012,-0.0519,0.09899999999999999,-9.8206,0.0048000000000000004,-0.0021999999999999997,-0.0639
3.2800820020500514,-0.0967,0.1542,-9.808,0.0045000000000000005,-0.0026,-0.06409999999999999
3.2900822520563016,-0.044,0.1252,-9.7414,0.0046,-0.0034,-0.06369999999999999
3.3000825020625517,-0.0893,0.0802,-9.7378,0.0036,-0.0036,-0.06409999999999999
3.310082752068802,-0.030899999999999997,0.0981,-9.8376,0.004,-0.0015,-0.0633
3.320083002075052,-0.1095,0.1462,-9.799900000000001,0.0036,-0.0021999999999999997,-0.0639
3.330083252081302,-0.0402,0.1797,-9.7845,0.003,-0.0031999999999999997,-0.0633
3.3400835020875523,-0.1144,0.0955,-9.719800000000001,0.0009,-0.0041,-0.0638
3.3500837520938025,-0.0164,0.0777,-9.8491,-0.0006000000000000001,-0.002,-0.06319999999999999
3.3600840021000526,-0.097,0.11199999999999999,-9.7913,0.0007999999999999999,-0.0023,-0.0633
3.370084252106303,-0.0528,0.1429,-9.8028,0.0017,-0.003,-0.0634
3.380084502112553,-0.1108,0.064,-9.6858,0.0023,-0.004,-0.06359999999999999
3.390084752118803,-0.022,0.0755,-9.8205,0.0021,-0.0018,-0.0626
3.4000850021250533,-0.08149999999999999,0.14129999999999998,-9.8262,0.0023,-0.0010999999999999998,-0.0628
3.4100852521313034,-0.0765,0.18639999999999998,-9.853299999999999,0.0015999999999999999,-0.0026999999999999997,-0.0626
3.4200855021375536,-0.09219999999999999,0.08099999999999999,-9.6966,0.0018,-0.0042,-0.06319999999999999
3.4300857521438037,-0.0115,0.0505,-9.8368,0.0010999999999999998,-0.0023,-0.0626
3.440086002150054,-0.1023,0.0785,-9.8018,0.0024000000000000002,-0.001,-0.0626
3.450086252156304,-0.0804,0.15159999999999998,-9.828000000000001,0.0036,-0.0019,-0.0624
3.460086502162554,-0.0707,0.1075,-9.6989,0.005,-0.0034,-0.0628
3.4700867521688044,-0.0523,0.06359999999999999,-9.7875,0.004,-0.0025,-0.0625
3.4800870021750545,-0.06899999999999999,0.1065,-9.818999999999999,0.005,-0.0010999999999999998,-0.062299999999999994
3.4900872521813047,-0.0878,0.15560000000000002,-9.841999999999999,0.0045000000000000005,-0.0019,-0.062299999999999994
3.500087502187555,-0.0535,0.1165,-9.7412,0.0048000000000000004,-0.0031999999999999997,-0.0625
3.510087752193805,-0.057499999999999996,0.06459999999999999,-9.8195,0.0039,-0.0026,-0.062200000000000005
3.520088002200055,-0.0576,0.0923,-9.803099999999999,0.0045000000000000005,-0.0006000000000000001,-0.0621
3.5300882522063053,-0.0895,0.13749999999999998,-9.8217,0.0043,-0.0013,-0.0619
3.5400885022125554,-0.0571,0.1472,-9.7371,0.004699999999999999,-0.0026999999999999997,-0.0615
3.5500887522188056,-0.087,0.084,-9.7612,0.0028,-0.0024000000000000002,-0.0625
3.5600890022250558,-0.0452,0.0915,-9.818399999999999,0.0036999999999999997,-0.0005,-0.0611
3.570089252231306,-0.09,0.1442,-9.8173,0.0034999999999999996,-0.0009,-0.061799999999999994
3.580089502237556,-0.050199999999999995,0.14859999999999998,-9.7814,0.004,-0.0019,-0.0613
3.590089752243806,-0.09849999999999999,0.057300000000000004,-9.728299999999999,0.0031999999999999997,-0.003,-0.062299999999999994
3.6000900022500564,0.0039,0.0841,-9.8446,0.0029,-0.0005,-0.061399999999999996
3.6100902522563065,-0.1237,0.1317,-9.7868,0.0033,-0.0007999999999999999,-0.0616
3.6200905022625567,-0.0348,0.1787,-9.7713,0.0026,-0.0015999999999999999,-0.0613
3.630090752268807,-0.1087,0.0702,-9.7262,0.0015999999999999999,-0.0021999999999999997,-0.0616
3.640091002275057,-0.013300000000000001,0.0877,-9.8653,0.001,-0.00030000000000000003,-0.0607
3.650091252281307,-0.0945,0.15159999999999998,-9.8073,0.00039999999999999996,-0.0005,-0.0613
3.6600915022875573,-0.048,0.1482,-9.8073,0.0007,-0.0015999999999999999,-0.0611
3.6700917522938075,-0.09829999999999998,0.051699999999999996,-9.7128,0.0009,-0.0021999999999999997,-0.0615
3.6800920023000576,-0.0173,0.0823,-9.8317,0.00030000000000000003,-0.0,-0.0603
3.6900922523063078,-0.0861,0.1366,-9.7997,0.0005,0.00030000000000000003,-0.0611
3.700092502312558,-0.06409999999999999,0.1707,-9.8394,0.0,-0.0009,-0.0608
3.710092752318808,-0.0822,0.0738,-9.694700000000001,9.999999999999999e-05,-0.002,-0.061399999999999996
3.7200930023250582,-0.030299999999999997,0.07569999999999999,-9.8218,-0.0009,-0.00039999999999999996,-0.060599999999999994
3.7300932523313084,-0.0807,0.10070000000000001,-9.8123,-0.00019999999999999998,0.0007,-0.060899999999999996
3.7400935023375586,-0.0837,0.1251,-9.853299999999999,0.0006000000000000001,-0.00039999999999999996,-0.0605
3.7500937523438087,-0.0688,0.0934,-9.6934,0.0018,-0.0019,-0.0608
3.760094002350059,-0.048299999999999996,0.0772,-9.8168,0.0007,-0.0007,-0.0605
3.770094252356309,-0.0602,0.1256,-9.7946,0.0012000000000000001,0.0005,-0.060099999999999994
3.780094502362559,-0.0936,0.1732,-9.8142,0.00019999999999999998,-0.0005,-0.0603
3.7900947523688093,-0.0439,0.1191,-9.6763,0.0013,-0.0018,-0.05999999999999999
3.8000950023750595,-0.0608,0.08850000000000001,-9.7675,9.999999999999999e-05,-0.0012000000000000001,-0.060099999999999994
3.8100952523813096,-0.064,0.111,-9.7669,0.0013,0.0007,-0.05959999999999999
3.82009550238756,-0.0858,0.1417,-9.8167,0.0009,-9.999999999999999e-05,-0.059699999999999996
3.83009575239381,-0.0368,0.1639,-9.716800000000001,0.0021999999999999997,-0.0015999999999999999,-0.05910000000000001
3.8400960024000605,-0.0802,0.1098,-9.722999999999999,0.001,-0.0017,-0.060099999999999994
3.8500962524063107,-0.0231,0.11720000000000001,-9.802,0.0010999999999999998,0.0007,-0.059000000000000004
3.860096502412561,-0.10319999999999999,0.1636,-9.7919,-0.0,9.999999999999999e-05,-0.0593
3.870096752418811,-0.0364,0.19090000000000001,-9.739,-0.0006000000000000001,-0.001,-0.0588
3.880097002425061,-0.0982,0.051500000000000004,-9.7246,-0.0021999999999999997,-0.0018,-0.05959999999999999
3.8900972524313113,-0.0092,0.0862,-9.828000000000001,-0.0007999999999999999,0.00039999999999999996,-0.0582
3.9000975024375615,-0.11249999999999999,0.1443,-9.7876,0.0006000000000000001,0.00019999999999999998,-0.058699999999999995
3.9100977524438116,-0.0457,0.17099999999999999,-9.7704,0.0007,-0.0010999999999999998,-0.0581
3.920098002450062,-0.0994,0.0904,-9.6903,-0.00019999999999999998,-0.0024000000000000002,-0.0585
3.930098252456312,-0.013999999999999999,0.1119,-9.8183,-0.001,-0.0006000000000000001,-0.0577
3.940098502462562,-0.08789999999999999,0.1598,-9.769400000000001,-0.0017,-0.0005,-0.0579
3.9500987524688123,-0.0416,0.1786,-9.7883,-0.0012000000000000001,-0.0015,-0.057499999999999996
3.9600990024750624,-0.10289999999999999,0.06319999999999999,-9.6801,-0.0006000000000000001,-0.0025,-0.0581
3.9700992524813126,-0.0049,0.086,-9.8148,-0.0013,-0.0006000000000000001,-0.05689999999999999
3.9800995024875627,-0.0847,0.1288,-9.7936,-0.0009,-9.999999999999999e-05,-0.0576
3.990099752493813,-0.0647,0.17429999999999998,-9.8142,-0.00030000000000000003,-0.0012000000000000001,-0.0572
4.000100002500063,-0.06459999999999999,0.0901,-9.6672,-9.999999999999999e-05,-0.0024000000000000002,-0.0576
4.010100252506313,-0.0315,0.0865,-9.8117,-0.0014,-0.001,-0.0567
4.020100502512563,-0.0907,0.136,-9.7799,-0.0015,0.0,-0.0568
4.0301007525188135,-0.0633,0.16299999999999998,-9.821299999999999,-0.0021,-0.0013,-0.0566
4.040101002525064,-0.057999999999999996,0.08940000000000001,-9.677900000000001,-0.001,-0.0026,-0.0567
4.050101252531314,-0.0451,0.08940000000000001,-9.7867,-0.0021,-0.0017,-0.0561
4.060101502537564,-0.0558,0.093,-9.7813,-0.001,-9.999999999999999e-05,-0.056499999999999995
4.070101752543814,-0.0775,0.1402,-9.8324,-0.0009,-0.0012000000000000001,-0.0558
4.080102002550064,-0.055999999999999994,0.1188,-9.6912,-0.0,-0.0026999999999999997,-0.0562
4.090102252556314,-0.0549,0.05330000000000001,-9.7866,-0.0009,-0.0023,-0.0563
4.100102502562565,-0.0472,0.0796,-9.800699999999999,0.0007,-0.0006000000000000001,-0.0555
4.110102752568815,-0.0738,0.1594,-9.8147,0.0005,-0.0013,-0.055999999999999994
4.120103002575065,-0.0462,0.1201,-9.709299999999999,0.001,-0.0025,-0.055999999999999994
4.130103252581315,-0.0772,0.0451,-9.7309,0.0006000000000000001,-0.0026999999999999997,-0.055999999999999994
4.140103502587565,-0.018699999999999998,0.10690000000000001,-9.8085,0.0007999999999999999,-0.0006000000000000001,-0.055099999999999996
4.150103752593815,-0.097,0.1391,-9.809,-0.00019999999999999998,-0.0007999999999999999,-0.0555
4.1601040026000655,-0.0412,0.12589999999999998,-9.7613,0.0006000000000000001,-0.0025,-0.055099999999999996
4.170104252606316,-0.077,0.06319999999999999,-9.7296,-0.00039999999999999996,-0.0031999999999999997,-0.0558
4.180104502612566,-0.017,0.0829,-9.8052,0.00030000000000000003,-0.0010999999999999998,-0.0546
4.190104752618816,-0.0982,0.1253,-9.7817,0.0007,-0.0014,-0.0552
4.200105002625066,-0.0231,0.1346,-9.7765,0.0015,-0.0021999999999999997,-0.05469999999999999
4.210105252631316,-0.09849999999999999,0.0608,-9.7207,0.0013,-0.0033,-0.0554
4.2201055026375665,-0.0173,0.10120000000000001,-9.809800000000001,0.0006000000000000001,-0.0019,-0.0546
4.230105752643817,-0.0915,0.1186,-9.77,0.0006000000000000001,-0.0018,-0.0552
4.240106002650067,-0.0243,0.1271,-9.8009,0.0007,-0.0024000000000000002,-0.05469999999999999
4.250106252656317,-0.0941,0.0572,-9.6879,0.0007999999999999999,-0.0034,-0.055
4.260106502662567,-0.0167,0.0997,-9.8183,-0.00019999999999999998,-0.0019,-0.054
4.270106752668817,-0.0844,0.0957,-9.7903,-9.999999999999999e-05,-0.0017,-0.055
4.280107002675067,-0.0473,0.1452,-9.8132,0.0,-0.0026999999999999997,-0.0541
4.2901072526813175,-0.0682,0.0607,-9.6823,0.0005,-0.0039,-0.054799999999999995
4.300107502687568,-0.0212,0.084,-9.8013,-0.0005,-0.0026999999999999997,-0.053899999999999997
4.310107752693818,-0.07339999999999999,0.0968,-9.779599999999999,-0.0005,-0.0018,-0.054299999999999994
4.320108002700068,-0.0635,0.1235,-9.8223,0.00030000000000000003,-0.0029,-0.054
4.330108252706318,-0.035199999999999995,0.0812,-9.671299999999999,0.0017,-0.0043,-0.0544
4.340108502712568,-0.0375,0.0584,-9.791,0.0012000000000000001,-0.0034999999999999996,-0.0541
4.3501087527188185,-0.0708,0.0844,-9.7791,0.0039,-0.0019,-0.053700000000000005
4.360109002725069,-0.06319999999999999,0.1335,-9.8262,0.0039,-0.0031,-0.053799999999999994
4.370109252731319,-0.0423,0.10889999999999998,-9.7105,0.0059,-0.0046,-0.0536
4.380109502737569,-0.055900000000000005,0.0728,-9.754999999999999,0.0049,-0.004699999999999999,-0.05419999999999999
4.390109752743819,-0.029500000000000002,0.1204,-9.8085,0.0058,-0.0025,-0.0531
4.400110002750069,-0.0981,0.1376,-9.7936,0.0048000000000000004,-0.0031,-0.05330000000000001
4.410110252756319,-0.02,0.161,-9.717099999999999,0.005,-0.004699999999999999,-0.052700000000000004
4.42011050276257,-0.0799,0.1003,-9.748999999999999,0.0024000000000000002,-0.0050999999999999995,-0.0531
4.43011075276882,-0.0059,0.1048,-9.8084,0.0026,-0.0033,-0.0526
4.44011100277507,-0.0788,0.1323,-9.7927,0.0025,-0.0034999999999999996,-0.052899999999999996
4.45011125278132,-0.0262,0.13190000000000002,-9.7601,0.0033,-0.0046,-0.0525
4.46011150278757,-0.0776,0.0731,-9.7228,0.0025,-0.0052,-0.053
4.47011175279382,0.0056,0.0825,-9.8453,0.0034999999999999996,-0.0031999999999999997,-0.052
4.4801120028000705,-0.1026,0.1369,-9.8024,0.0033,-0.0039,-0.0526
4.490112252806321,-0.0305,0.1474,-9.7818,0.003,-0.0053,-0.052099999999999994
4.500112502812571,-0.07150000000000001,0.0904,-9.6946,0.0021,-0.0065,-0.0526
4.510112752818821,-0.0015,0.1015,-9.8243,0.0017,-0.004399999999999999,-0.05159999999999999
4.520113002825071,-0.0893,0.12899999999999998,-9.7764,0.0009,-0.0043,-0.052
4.530113252831321,-0.0319,0.1525,-9.819600000000001,0.0021999999999999997,-0.005,-0.051199999999999996
4.540113502837571,-0.0823,0.0929,-9.697,0.0015,-0.0066,-0.0518
4.550113752843822,0.0086,0.0928,-9.8316,0.00019999999999999998,-0.0050999999999999995,-0.05109999999999999
4.560114002850072,-0.08589999999999999,0.11349999999999999,-9.7864,0.0013,-0.0049,-0.0514
4.570114252856322,-0.025300000000000003,0.1655,-9.8135,0.00030000000000000003,-0.0056,-0.0513
4.580114502862572,-0.057499999999999996,0.0721,-9.683300000000001,0.0006000000000000001,-0.0069,-0.05159999999999999
4.590114752868822,-0.0124,0.0961,-9.806199999999999,0.0006000000000000001,-0.0055,-0.0509
4.600115002875072,-0.0633,0.10169999999999998,-9.8024,0.0009,-0.0045000000000000005,-0.0513
4.6101152528813225,-0.041,0.1714,-9.8683,0.00019999999999999998,-0.0053,-0.050699999999999995
4.620115502887573,-0.059500000000000004,0.1083,-9.7295,9.999999999999999e-05,-0.0068,-0.0513
4.630115752893823,-0.0272,0.10289999999999999,-9.8125,-0.0014,-0.0063,-0.0505
4.640116002900073,-0.048999999999999995,0.12589999999999998,-9.8215,-0.0026999999999999997,-0.005,-0.0503
4.650116252906323,-0.046,0.1802,-9.835099999999999,-0.0038,-0.0058,-0.05
4.660116502912573,-0.0098,0.13979999999999998,-9.7302,-0.0039,-0.0071,-0.0505
4.670116752918823,-0.0742,0.0965,-9.8028,-0.0066,-0.0067,-0.05
4.680117002925074,-0.0068,0.13240000000000002,-9.8494,-0.007899999999999999,-0.0045000000000000005,-0.0494
4.690117252931324,-0.0814,0.1922,-9.8817,-0.0097,-0.005399999999999999,-0.0496
4.700117502937574,-0.028499999999999998,0.1533,-9.7723,-0.0104,-0.0073,-0.0498
4.710117752943824,-0.0552,0.019799999999999998,-9.7782,-0.012,-0.007899999999999999,-0.050100000000000006
4.720118002950074,-0.0063,0.0937,-9.8166,-0.009899999999999999,-0.0055,-0.04889999999999999
4.730118252956324,-0.0647,0.15610000000000002,-9.8291,-0.0105,-0.0056,-0.0496
4.7401185029625745,-0.013699999999999999,0.1467,-9.7917,-0.0106,-0.0066,-0.0491
4.750118752968825,-0.0741,0.097,-9.7768,-0.0123,-0.0073999999999999995,-0.0492
4.760119002975075,0.008,0.1087,-9.8526,-0.0132,-0.0056,-0.0487
4.770119252981325,-0.08059999999999999,0.0984,-9.8215,-0.0144,-0.0059,-0.04889999999999999
4.780119502987575,-0.0196,0.08109999999999999,-9.796299999999999,-0.0124,-0.0071,-0.0482
4.790119752993825,-0.0474,0.018799999999999997,-9.7265,-0.0114,-0.0078,-0.048999999999999995
4.8001200030000755,0.004399999999999999,0.0428,-9.8322,-0.01,-0.0059,-0.0481
4.810120253006326,-0.0767,0.11199999999999999,-9.7953,-0.0089,-0.0059,-0.048999999999999995
4.820120503012576,-0.0166,0.1485,-9.8392,-0.0098,-0.0065,-0.048299999999999996
4.830120753018826,-0.0633,0.061200000000000004,-9.7711,-0.0115,-0.0078,-0.048799999999999996
4.840121003025076,0.013699999999999999,0.0717,-9.866999999999999,-0.012,-0.0067,-0.0479
4.850121253031326,-0.061200000000000004,0.07429999999999999,-9.8242,-0.0113,-0.0062,-0.048799999999999996
4.860121503037576,-0.0181,0.0955,-9.839599999999999,-0.010799999999999999,-0.0067,-0.0478
4.8701217530438266,-0.0428,0.0683,-9.7258,-0.01,-0.007499999999999999,-0.0481
4.880122003050077,-0.0076,0.1149,-9.8666,-0.0115,-0.0060999999999999995,-0.0473
4.890122253056327,-0.0446,0.0998,-9.854899999999999,-0.0121,-0.0060999999999999995,-0.0481
4.900122503062577,-0.029300000000000003,0.1348,-9.8614,-0.0125,-0.0073,-0.0475
4.910122753068827,-0.046299999999999994,0.06359999999999999,-9.728399999999999,-0.0114,-0.0083,-0.0477
4.920123003075077,-0.0015,0.059000000000000004,-9.8361,-0.0126,-0.006999999999999999,-0.0473
4.9301232530813275,-0.0219,0.08099999999999999,-9.8623,-0.011,-0.0053,-0.0471
4.940123503087578,-0.066,0.149,-9.8852,-0.0119,-0.0066,-0.0468
4.950123753093828,-0.0014,0.1114,-9.7548,-0.0118,-0.0081,-0.0472
4.960124003100078,-0.0414,0.038400000000000004,-9.8138,-0.012199999999999999,-0.0078,-0.0472
4.970124253106328,-0.0179,0.05419999999999999,-9.8205,-0.010799999999999999,-0.0059,-0.046299999999999994
4.980124503112578,-0.0513,0.0946,-9.8578,-0.012,-0.0062,-0.046599999999999996
4.990124753118828,-0.0095,0.10300000000000001,-9.774,-0.010799999999999999,-0.0072,-0.046299999999999994
5.000125003125079,-0.0401,0.0445,-9.8132,-0.0123,-0.0073,-0.046599999999999996
5.010125253131329,-0.0006000000000000001,0.0679,-9.8499,-0.0114,-0.0058,-0.0457
5.020125503137579,-0.0725,0.0942,-9.8619,-0.0123,-0.0063999999999999994,-0.046099999999999995
5.030125753143829,0.0009,0.10889999999999998,-9.812899999999999,-0.0111,-0.007499999999999999,-0.045399999999999996
5.040126003150079,-0.0688,0.0189,-9.7754,-0.0109,-0.007899999999999999,-0.046099999999999995
5.050126253156329,0.0218,0.0319,-9.8402,-0.010199999999999999,-0.0060999999999999995,-0.0451
5.0601265031625795,-0.053799999999999994,0.05469999999999999,-9.858500000000001,-0.009399999999999999,-0.0056,-0.0457
5.07012675316883,-0.0254,0.11399999999999999,-9.8491,-0.0093,-0.0065,-0.0448
5.08012700317508,-0.050100000000000006,0.0643,-9.771199999999999,-0.0104,-0.0081,-0.0458
5.09012725318133,0.0186,0.0428,-9.8737,-0.0114,-0.0067,-0.0451
5.10012750318758,-0.0765,0.0456,-9.8261,-0.0112,-0.0065,-0.045399999999999996
5.11012775319383,-0.0089,0.0897,-9.8427,-0.011,-0.0066,-0.044700000000000004
5.12012800320008,-0.0344,0.0157,-9.7493,-0.0109,-0.007899999999999999,-0.0455
5.130128253206331,0.013699999999999999,0.020900000000000002,-9.8836,-0.0125,-0.006,-0.0444
5.140128503212581,-0.059699999999999996,0.06620000000000001,-9.840300000000001,-0.0109,-0.0058,-0.0448
5.150128753218831,-0.0164,0.1142,-9.8523,-0.0111,-0.0067,-0.0445
5.160129003225081,-0.0257,0.0223,-9.7723,-0.0121,-0.008,-0.0448
5.170129253231331,-0.0010999999999999998,0.030299999999999997,-9.8696,-0.0126,-0.0063,-0.0442
5.180129503237581,-0.028200000000000003,0.050199999999999995,-9.8321,-0.0118,-0.0055,-0.044700000000000004
5.1901297532438315,-0.0207,0.0745,-9.875200000000001,-0.0118,-0.0060999999999999995,-0.0442
5.200130003250082,-0.0262,0.0048000000000000004,-9.764000000000001,-0.0111,-0.0069,-0.044700000000000004
5.210130253256332,-0.0010999999999999998,0.0172,-9.8788,-0.0111,-0.0060999999999999995,-0.0439
5.220130503262582,-0.0312,0.0608,-9.8604,-0.01,-0.0053,-0.0439
5.230130753268832,-0.0429,0.0968,-9.8844,-0.010799999999999999,-0.0063999999999999994,-0.044
5.240131003275082,0.0062,0.046,-9.770299999999999,-0.009600000000000001,-0.0071,-0.0439
5.2501312532813325,-0.0321,0.033100000000000004,-9.844700000000001,-0.010799999999999999,-0.0063,-0.0436
5.260131503287583,-0.0154,0.0571,-9.8509,-0.0106,-0.0049,-0.043
5.270131753293833,-0.0413,0.0787,-9.8963,-0.0106,-0.0058,-0.043399999999999994
5.280132003300083,-0.0167,0.0554,-9.7985,-0.009399999999999999,-0.0068,-0.0431
5.290132253306333,-0.012799999999999999,-0.0063999999999999994,-9.8241,-0.01,-0.0066,-0.0433
5.300132503312583,0.0114,0.0428,-9.8599,-0.0086,-0.0046,-0.0426
5.310132753318833,-0.0691,0.0584,-9.864,-0.0086,-0.0048000000000000004,-0.043
5.3201330033250835,0.0013,0.0661,-9.8242,-0.0076,-0.0058,-0.0423
5.330133253331334,-0.0368,0.0071,-9.7776,-0.0083,-0.0066,-0.043
5.340133503337584,0.0514,0.0163,-9.8861,-0.0076,-0.0042,-0.0421
5.350133753343834,-0.0905,0.0417,-9.8646,-0.0076,-0.0042,-0.042499999999999996
5.360134003350084,0.0026999999999999997,0.0721,-9.841999999999999,-0.0072,-0.0052,-0.041800000000000004
5.370134253356334,-0.0263,-0.0167,-9.7944,-0.006999999999999999,-0.0062,-0.042499999999999996
5.3801345033625845,0.0197,0.008799999999999999,-9.8967,-0.0068,-0.0045000000000000005,-0.0414
5.390134753368835,-0.0588,0.019,-9.844999999999999,-0.0052,-0.0039,-0.0422
5.400135003375085,0.0015,0.0493,-9.874099999999999,-0.004,-0.0048000000000000004,-0.0411
5.410135253381335,-0.0212,0.01,-9.7798,-0.0036999999999999997,-0.0057,-0.041800000000000004
5.420135503387585,0.0147,0.0225,-9.9173,-0.0046,-0.0038,-0.0411
5.430135753393835,-0.0508,0.0583,-9.8429,-0.004,-0.0038,-0.0413
5.440136003400085,-0.0015999999999999999,0.1114,-9.8768,-0.0049,-0.004399999999999999,-0.0409
5.450136253406336,-0.0302,0.018799999999999997,-9.7625,-0.005399999999999999,-0.0050999999999999995,-0.0412
5.460136503412586,0.0139,0.0091,-9.8601,-0.006999999999999999,-0.0036,-0.040499999999999994
5.470136753418836,-0.0236,0.05739999999999999,-9.8866,-0.0073999999999999995,-0.0026,-0.0406
5.480137003425086,-0.0212,0.0866,-9.9039,-0.0091,-0.0031999999999999997,-0.0407
5.490137253431336,-0.0229,0.0182,-9.7875,-0.0091,-0.0041,-0.040499999999999994
5.500137503437586,-0.010799999999999999,0.024499999999999997,-9.8828,-0.0114,-0.0034999999999999996,-0.0401
5.5101377534438365,-0.0206,0.031,-9.8576,-0.0118,-0.0024000000000000002,-0.0399
5.520138003450087,-0.0264,0.061200000000000004,-9.8803,-0.0123,-0.003,-0.0397
5.530138253456337,0.014899999999999998,0.019799999999999998,-9.7632,-0.0112,-0.0038,-0.04
5.540138503462587,-0.0449,-0.0226,-9.8279,-0.0138,-0.0031999999999999997,-0.039599999999999996
5.550138753468837,-0.0015,0.0337,-9.8574,-0.013300000000000001,-0.0019,-0.038900000000000004
5.560139003475087,-0.0234,0.0769,-9.8921,-0.0144,-0.0023,-0.0395
5.570139253481337,-0.018699999999999998,0.0467,-9.821399999999999,-0.0143,-0.0036999999999999997,-0.0391
5.580139503487588,-0.0365,-0.056400000000000006,-9.7801,-0.014799999999999999,-0.0043,-0.0397
5.590139753493838,0.0328,-0.0019,-9.8507,-0.013999999999999999,-0.0018,-0.0385
5.600140003500088,-0.0593,-0.0053,-9.8612,-0.0124,-0.0012000000000000001,-0.0391
5.610140253506338,0.0118,0.052899999999999996,-9.8338,-0.0107,-0.0019,-0.038099999999999995
5.620140503512588,-0.0462,-0.0327,-9.808,-0.0114,-0.0026999999999999997,-0.0393
5.630140753518838,0.0333,-0.0093,-9.8764,-0.011,-0.001,-0.038099999999999995
5.6401410035250885,-0.062200000000000005,0.0183,-9.8634,-0.0101,-0.0007,-0.038400000000000004
5.650141253531339,0.003,0.052,-9.8613,-0.009399999999999999,-0.0019,-0.037599999999999995
5.660141503537589,-0.0324,-0.0476,-9.7386,-0.0093,-0.0033,-0.0386
5.670141753543839,0.0386,-0.0576,-9.866,-0.008799999999999999,-0.0015999999999999999,-0.037599999999999995
5.680142003550089,-0.0723,-0.0337,-9.8195,-0.0063,-0.0013,-0.0382
5.690142253556339,0.0045000000000000005,0.0053,-9.8219,-0.0049,-0.002,-0.0375
5.7001425035625894,-0.0182,-0.02,-9.777,-0.0036,-0.003,-0.038
5.71014275356884,-0.0089,-0.0060999999999999995,-9.8678,-0.005,-0.0012000000000000001,-0.0373
5.72014300357509,-0.0254,0.0215,-9.8548,-0.0052,-0.0009,-0.0373
5.73014325358134,-0.0015,0.0475,-9.8667,-0.0050999999999999995,-0.0015999999999999999,-0.0371
5.74014350358759,-0.0203,-0.0369,-9.747300000000001,-0.005399999999999999,-0.0021999999999999997,-0.0375
5.75014375359384,0.002,-0.0658,-9.861699999999999,-0.0063999999999999994,-0.00039999999999999996,-0.0368
5.76014400360009,-0.037599999999999995,0.007499999999999999,-9.8331,-0.0046,0.0006000000000000001,-0.0366
5.7701442536063405,-0.009600000000000001,0.0742,-9.871,-0.0068,9.999999999999999e-05,-0.0366
5.780144503612591,-0.017,0.0112,-9.7627,-0.006999999999999999,-0.0014,-0.0365
5.790144753618841,-0.0234,-0.031799999999999995,-9.826500000000001,-0.009000000000000001,-0.001,-0.0364
5.800145003625091,-0.006999999999999999,-0.0382,-9.8532,-0.0076,9.999999999999999e-05,-0.0361
5.810145253631341,-0.0283,0.014799999999999999,-9.8852,-0.007499999999999999,-0.0007,-0.0363
5.820145503637591,-0.0049,-0.0277,-9.790899999999999,-0.0056,-0.0013,-0.0365
5.8301457536438415,-0.0259,-0.0619,-9.812,-0.0065,-0.0013,-0.0361
5.840146003650092,0.0118,0.0166,-9.8415,-0.0060999999999999995,0.00039999999999999996,-0.0353
5.850146253656342,-0.048799999999999996,0.0433,-9.8626,-0.0077,-9.999999999999999e-05,-0.0358
5.860146503662592,0.0147,-0.00019999999999999998,-9.797500000000001,-0.0076,-0.0010999999999999998,-0.0357
5.870146753668842,-0.0378,-0.0907,-9.7869,-0.0083,-0.0009,-0.036000000000000004
5.880147003675092,0.0297,-0.0449,-9.8476,-0.0072,0.0013,-0.0349
5.890147253681342,-0.0593,-0.0155,-9.8621,-0.0073999999999999995,0.0013,-0.0355
5.9001475036875926,-0.0007999999999999999,0.0042,-9.8177,-0.0057,-0.0,-0.0349
5.910147753693843,-0.026099999999999998,-0.053399999999999996,-9.765600000000001,-0.0069,-0.0009,-0.0357
5.920148003700093,0.0297,-0.0201,-9.84,-0.0073999999999999995,0.0012000000000000001,-0.034699999999999995
5.930148253706343,-0.0794,-0.021,-9.843300000000001,-0.007899999999999999,0.0017,-0.035199999999999995
5.940148503712593,0.0111,-0.0048000000000000004,-9.8281,-0.007499999999999999,0.00039999999999999996,-0.0344
5.950148753718843,-0.0126,-0.0477,-9.789499999999999,-0.0084,-0.0006000000000000001,-0.0353
5.9601490037250935,-0.0221,-0.0523,-9.840599999999998,-0.0086,0.0007999999999999999,-0.0344
5.970149253731344,-0.0392,-0.0060999999999999995,-9.8124,-0.008799999999999999,0.0009,-0.0348
5.980149503737594,0.0109,-0.0104,-9.8287,-0.0092,0.0005,-0.0344
5.990149753743844,-0.022699999999999998,-0.0721,-9.760399999999999,-0.0091,-0.00030000000000000003,-0.034699999999999995
6.000150003750094,0.0143,-0.0562,-9.8599,-0.0104,0.0012000000000000001,-0.0341
6.010150253756344,-0.06359999999999999,-0.0205,-9.804,-0.0093,0.0015,-0.0344
6.020150503762594,0.0073999999999999995,0.0049,-9.8187,-0.0107,0.0006000000000000001,-0.034
6.030150753768845,-0.028999999999999998,-0.0291,-9.7306,-0.010799999999999999,-0.0007,-0.0338
6.040151003775095,0.0031999999999999997,-0.0493,-9.8272,-0.0126,0.0009,-0.0336
6.050151253781345,-0.0305,-0.0335,-9.8052,-0.0113,0.0018,-0.0334
6.060151503787595,-0.0104,-0.005,-9.8557,-0.0112,0.0012000000000000001,-0.0333
6.070151753793845,-0.0219,-0.0487,-9.7192,-0.0089,-0.00039999999999999996,-0.0332
6.080152003800095,0.0055,-0.0672,-9.8252,-0.0093,0.0006000000000000001,-0.0332
6.0901522538063455,-0.0399,-0.0279,-9.8048,-0.007499999999999999,0.0017,-0.0327
6.100152503812596,-0.0048000000000000004,0.0059,-9.8541,-0.0082,0.0013,-0.033100000000000004
6.110152753818846,-0.0163,-0.0265,-9.7493,-0.0086,-9.999999999999999e-05,-0.033
6.120153003825096,-0.0337,-0.10629999999999999,-9.775699999999999,-0.0098,9.999999999999999e-05,-0.033
6.130153253831346,0.018799999999999997,-0.0615,-9.821,-0.0082,0.0021,-0.032
6.140153503837596,-0.0479,-0.020399999999999998,-9.8684,-0.0087,0.0017,-0.0324
6.150153753843846,-0.0152,-0.0173,-9.7803,-0.007499999999999999,9.999999999999999e-05,-0.031799999999999995
6.160154003850097,-0.0208,-0.09309999999999999,-9.782399999999999,-0.0076,-0.00019999999999999998,-0.0325
6.170154253856347,0.0201,-0.06459999999999999,-9.832,-0.006999999999999999,0.0017,-0.0312
6.180154503862597,-0.06949999999999999,-0.0178,-9.825299999999999,-0.006999999999999999,0.0014,-0.0317
6.190154753868847,0.0083,-0.0416,-9.7915,-0.0063,0.00030000000000000003,-0.0314
6.200155003875097,0.0017,-0.1167,-9.789100000000001,-0.0068,-0.00019999999999999998,-0.032
6.210155253881347,-0.0026999999999999997,-0.084,-9.8427,-0.0056,0.0017,-0.031
6.2201555038875975,-0.0656,-0.0223,-9.821100000000001,-0.004699999999999999,0.0017,-0.031599999999999996
6.230155753893848,0.0042,-0.038099999999999995,-9.7946,-0.004399999999999999,0.0005,-0.0312
6.240156003900098,-0.0115,-0.1036,-9.7409,-0.0036999999999999997,-0.00019999999999999998,-0.0312
6.250156253906348,0.016,-0.0673,-9.8506,-0.0036999999999999997,0.0019,-0.0304
6.260156503912598,-0.0599,-0.0346,-9.8303,-0.0028,0.0021,-0.030899999999999997
6.270156753918848,0.0024000000000000002,-0.033100000000000004,-9.8107,-0.0026,0.0007999999999999999,-0.0302
6.2801570039250985,0.0036,-0.091,-9.7579,-0.0025,-0.00030000000000000003,-0.0308
6.290157253931349,-0.012199999999999999,-0.093,-9.838,-0.0033,0.0014,-0.0299
6.300157503937599,-0.041,-0.0568,-9.797699999999999,-0.0,0.0018,-0.0302
6.310157753943849,-0.0012000000000000001,-0.0395,-9.828000000000001,0.0,0.001,-0.0301
6.320158003950099,-0.021,-0.1149,-9.7472,0.001,0.00019999999999999998,-0.0301
6.330158253956349,-0.0021999999999999997,-0.0945,-9.8227,0.0007999999999999999,0.0014,-0.0297
6.340158503962599,-0.0308,-0.0289,-9.8258,0.0024000000000000002,0.0017,-0.029599999999999998
6.3501587539688495,-0.0152,-0.0015999999999999999,-9.8139,0.0006000000000000001,0.0005,-0.029599999999999998
6.3601590039751,0.00030000000000000003,-0.061799999999999994,-9.735000000000001,0.0014,-9.999999999999999e-05,-0.029500000000000002
6.37015925398135,-0.035199999999999995,-0.0903,-9.8013,-0.0007999999999999999,0.0009,-0.0292
6.3801595039876,0.0124,-0.033,-9.8257,-0.0005,0.0021,-0.028499999999999998
6.39015975399385,-0.0473,-0.015799999999999998,-9.8375,-0.0017,0.001,-0.028999999999999998
6.4001600040001,-0.0123,-0.061799999999999994,-9.736,-0.0012000000000000001,-0.00039999999999999996,-0.0286
6.4101602540063505,-0.0077,-0.09829999999999998,-9.7591,-0.0023,-0.00039999999999999996,-0.0288
6.420160504012601,0.0050999999999999995,-0.0388,-9.8015,-0.0007999999999999999,0.0013,-0.0279
6.430160754018851,-0.0499,-0.053700000000000005,-9.8279,-0.0013,0.0010999999999999998,-0.028699999999999996
6.440161004025101,0.0138,-0.0368,-9.7696,0.0009,0.00030000000000000003,-0.0278
6.450161254031351,-0.0353,-0.1147,-9.7676,0.0007,-0.00019999999999999998,-0.028699999999999996
6.460161504037601,0.0294,-0.073,-9.8178,0.0010999999999999998,0.0012000000000000001,-0.027099999999999996
6.470161754043851,-0.06269999999999999,-0.0394,-9.851600000000001,0.0024000000000000002,0.0013,-0.027999999999999997
6.480162004050102,-0.0055,-0.0249,-9.7966,0.0015999999999999999,-0.0,-0.027399999999999997
6.490162254056352,-0.0214,-0.1321,-9.7395,0.0021,-0.0009,-0.0277
6.500162504062602,0.031599999999999996,-0.0736,-9.8492,0.003,0.0007999999999999999,-0.0265
6.510162754068852,-0.08310000000000001,-0.0411,-9.8022,0.0036999999999999997,0.0009,-0.0273
6.520163004075102,0.0043,-0.046299999999999994,-9.7944,0.0034,-0.00039999999999999996,-0.0264
6.530163254081352,0.0021999999999999997,-0.09129999999999999,-9.7438,0.0049,-0.0015,-0.027
6.5401635040876025,0.0119,-0.0686,-9.853,0.0043,0.0006000000000000001,-0.0262
6.550163754093853,-0.066,-0.0708,-9.8107,0.0066,0.0009,-0.026699999999999998
6.560164004100103,0.0111,-0.0386,-9.8388,0.0073,-0.00039999999999999996,-0.026
6.570164254106353,-0.010199999999999999,-0.0817,-9.7541,0.0089,-0.001,-0.0263
6.580164504112603,0.0043,-0.0698,-9.8476,0.007899999999999999,0.00039999999999999996,-0.025599999999999998
6.590164754118853,-0.0378,-0.0177,-9.807,0.01,0.0012000000000000001,-0.0257
6.600165004125103,-0.027099999999999996,-0.014100000000000001,-9.822799999999999,0.0082,0.00019999999999999998,-0.0254
6.610165254131354,-0.0021,-0.048799999999999996,-9.7618,0.0086,-0.0007999999999999999,-0.0249
6.620165504137604,-0.0254,-0.0624,-9.835199999999999,0.0068,0.00019999999999999998,-0.025
6.630165754143854,-0.0058,-0.048299999999999996,-9.8399,0.0077,0.0007,-0.0248
6.640166004150104,-0.045899999999999996,-0.0417,-9.8377,0.0081,-0.00039999999999999996,-0.0249
6.650166254156354,0.0025,-0.0777,-9.733500000000001,0.0095,-0.0014,-0.0247
6.660166504162604,0.0076,-0.0928,-9.8326,0.0087,-9.999999999999999e-05,-0.0248
6.6701667541688545,-0.0247,-0.0471,-9.8122,0.0106,0.0009,-0.0239
6.680167004175105,-0.0304,-0.001,-9.8539,0.0098,9.999999999999999e-05,-0.024399999999999998
6.690167254181355,-0.0215,-0.05999999999999999,-9.763,0.01,-0.001,-0.0241
6.700167504187605,0.0091,-0.12689999999999999,-9.8161,0.0097,-0.0005,-0.0243
6.710167754193855,-0.0021999999999999997,-0.07479999999999999,-9.845099999999999,0.0115,0.0012000000000000001,-0.0236
6.720168004200105,-0.0498,-0.0232,-9.8355,0.01,0.0005,-0.024
6.7301682542063554,-0.0038,-0.04889999999999999,-9.7626,0.0098,-0.0007999999999999999,-0.0237
6.740168504212606,-0.0223,-0.0776,-9.776,0.009399999999999999,-0.0009,-0.0238
6.750168754218856,0.0218,-0.028999999999999998,-9.8486,0.008,0.0007,-0.0229
6.760169004225106,-0.0813,-0.017599999999999998,-9.825399999999998,0.0073,0.00019999999999999998,-0.0235
6.770169254231356,0.0144,-0.0174,-9.7794,0.006999999999999999,-0.001,-0.0229
6.780169504237606,-0.0038,-0.089,-9.789299999999999,0.0063999999999999994,-0.0014,-0.0236
6.790169754243856,0.013999999999999999,-0.0504,-9.8291,0.0057,0.00019999999999999998,-0.0225
6.8001700042501065,-0.054799999999999995,-0.020900000000000002,-9.8222,0.006,0.0,-0.0234
6.810170254256357,0.00039999999999999996,-0.0305,-9.7912,0.0053,-0.001,-0.022699999999999998
6.820170504262607,-0.0009,-0.0709,-9.7554,0.004699999999999999,-0.0015,-0.023
6.830170754268857,0.0123,-0.0504,-9.8682,0.0031,0.00019999999999999998,-0.0225
6.840171004275107,-0.058600000000000006,-0.0353,-9.818,0.0042,0.00039999999999999996,-0.022699999999999998
6.850171254281357,-0.0084,-0.0083,-9.8191,0.0031,-0.0006000000000000001,-0.0223
6.8601715042876075,-0.01,-0.0701,-9.738199999999999,0.0031,-0.0017,-0.0222
6.870171754293858,0.0083,-0.0638,-9.8547,0.0015999999999999999,-9.999999999999999e-05,-0.0218
6.880172004300108,-0.0444,-0.0469,-9.8315,0.004399999999999999,0.00039999999999999996,-0.0221
6.890172254306358,-0.0019,-0.0116,-9.8527,0.0036,-0.00030000000000000003,-0.0218
6.900172504312608,-0.0097,-0.0647,-9.7645,0.004399999999999999,-0.0014,-0.0219
6.910172754318858,-0.0091,-0.0479,-9.8459,0.0034,-0.0005,-0.0215
6.920173004325108,-0.0319,-0.0063999999999999994,-9.818399999999999,0.0036999999999999997,-0.00030000000000000003,-0.0214
6.930173254331359,-0.0105,-0.0113,-9.851799999999999,0.0028,-0.0009,-0.0215
6.940173504337609,-0.0065,-0.0857,-9.7665,0.0045000000000000005,-0.0014,-0.0214
6.950173754343859,-0.006999999999999999,-0.0914,-9.831199999999999,0.0048000000000000004,-0.0006000000000000001,-0.0213
6.960174004350109,0.0034999999999999996,-0.036000000000000004,-9.8544,0.0057,0.00039999999999999996,-0.020900000000000002
6.970174254356359,-0.045399999999999996,-0.004699999999999999,-9.856399999999999,0.0060999999999999995,-0.00030000000000000003,-0.0212
6.980174504362609,0.0005,-0.0407,-9.7605,0.0066,-0.0015999999999999999,-0.020399999999999998
6.9901747543688595,-0.0033,-0.0667,-9.8325,0.0056,-0.0010999999999999998,-0.020900000000000002
7.00017500437511,0.0065,-0.0243,-9.851799999999999,0.0049,0.0009,-0.0199
7.01017525438136,-0.0624,-0.0228,-9.8296,0.0057,0.00019999999999999998,-0.0206
7.02017550438761,0.0078,-0.026699999999999998,-9.7683,0.006,-0.0012000000000000001,-0.02
7.03017575439386,-0.0033,-0.10219999999999999,-9.7814,0.0056,-0.0012000000000000001,-0.0206
7.04017600440011,0.0112,-0.0513,-9.8553,0.007499999999999999,0.0007999999999999999,-0.0195
7.05017625440636,-0.0747,-0.0252,-9.8276,0.0078,9.999999999999999e-05,-0.0203
7.060176504412611,0.019,-0.0211,-9.8287,0.0082,-0.0007999999999999999,-0.0197
7.070176754418861,-0.0173,-0.10740000000000001,-9.795,0.009000000000000001,-0.0012000000000000001,-0.0206
7.080177004425111,0.0095,-0.053700000000000005,-9.8717,0.0091,0.0005,-0.0193
7.090177254431361,-0.06319999999999999,-0.008799999999999999,-9.8251,0.0097,0.00019999999999999998,-0.02
7.100177504437611,0.0015999999999999999,0.0048000000000000004,-9.8373,0.0095,-0.00039999999999999996,-0.0193
7.110177754443861,-0.0034,-0.095,-9.7797,0.009399999999999999,-0.0007999999999999999,-0.0197
7.1201780044501115,0.0010999999999999998,-0.0472,-9.888399999999999,0.009600000000000001,0.0007999999999999999,-0.018699999999999998
7.130178254456362,-0.0555,-0.0195,-9.8261,0.0105,0.0009,-0.0194
7.140178504462612,-0.0078,-0.0186,-9.8336,0.0109,-0.00019999999999999998,-0.0191
7.150178754468862,-0.0101,-0.0834,-9.7424,0.0114,-0.0010999999999999998,-0.019200000000000002
7.160179004475112,0.0247,-0.039599999999999996,-9.8714,0.010799999999999999,0.0007999999999999999,-0.018799999999999997
7.170179254481362,-0.0492,-0.0053,-9.841,0.0112,0.0013,-0.0191
7.180179504487612,-0.0181,0.032,-9.8574,0.009399999999999999,0.00019999999999999998,-0.018799999999999997
7.190179754493863,-0.0076,-0.0229,-9.7524,0.0086,-0.0009,-0.019
7.200180004500113,0.017,-0.025599999999999998,-9.8743,0.0072,0.0007,-0.0184
7.210180254506363,-0.0421,0.004399999999999999,-9.8387,0.0072,0.0015999999999999999,-0.0182
7.220180504512613,-0.0156,0.014100000000000001,-9.8586,0.0056,0.001,-0.0182
7.230180754518863,-0.0071,-0.0333,-9.7752,0.0059,9.999999999999999e-05,-0.0181
7.240181004525113,-0.01,-0.0402,-9.8506,0.0039,0.0013,-0.0179
7.2501812545313635,-0.012799999999999999,0.0084,-9.848999999999998,0.0039,0.0021,-0.017599999999999998
7.260181504537614,-0.052700000000000004,0.0223,-9.851799999999999,0.003,0.0013,-0.0177
7.270181754543864,0.0041,-0.014499999999999999,-9.7795,0.0025,0.00030000000000000003,-0.0177
7.280182004550114,-0.013,-0.0725,-9.8323,0.0024000000000000002,0.0010999999999999998,-0.0178
7.290182254556364,0.005399999999999999,-0.0194,-9.8584,0.0038,0.0024000000000000002,-0.0169
7.300182504562614,-0.0599,0.0165,-9.850200000000001,0.004,0.0021,-0.017599999999999998
7.3101827545688645,0.0048000000000000004,-0.015899999999999997,-9.8043,0.0045000000000000005,0.0009,-0.017
7.320183004575115,-0.013999999999999999,-0.055099999999999996,-9.826500000000001,0.004,0.0010999999999999998,-0.0171
7.330183254581365,0.0135,-0.0101,-9.8699,0.0034,0.0025,-0.0164
7.340183504587615,-0.0682,0.0234,-9.8379,0.0034,0.0021,-0.0169
7.350183754593865,-0.0006000000000000001,0.0226,-9.7679,0.0021999999999999997,0.0012000000000000001,-0.0163
7.360184004600115,-0.0247,-0.040499999999999994,-9.7677,0.0017,0.001,-0.0163
7.370184254606365,0.0155,0.0005,-9.8554,0.0009,0.0028,-0.0155
7.3801845046126155,-0.0599,0.0358,-9.8285,0.0015,0.0028,-0.015899999999999997
7.390184754618866,-0.0196,0.030699999999999998,-9.8071,0.0014,0.0014,-0.0154
7.400185004625116,-0.0041,-0.046299999999999994,-9.745800000000001,0.002,0.0007,-0.015799999999999998
7.410185254631366,-0.001,-0.0174,-9.8358,0.001,0.0024000000000000002,-0.014999999999999998
7.420185504637616,-0.050100000000000006,0.0181,-9.812899999999999,0.002,0.0031,-0.0154
7.430185754643866,-0.0029,0.0246,-9.8263,0.001,0.0026999999999999997,-0.0151
7.4401860046501165,-0.0289,-0.048799999999999996,-9.7417,0.001,0.0015999999999999999,-0.014999999999999998
7.450186254656367,-0.0007999999999999999,-0.0474,-9.8582,-0.0006000000000000001,0.0028,-0.014499999999999999
7.460186504662617,-0.0407,0.0212,-9.8285,0.0013,0.0034999999999999996,-0.0143
7.470186754668867,-0.0238,0.0339,-9.826699999999999,0.0006000000000000001,0.0026,-0.0142
7.480187004675117,-0.026,-0.0273,-9.737,0.001,0.001,-0.013999999999999999
7.490187254681367,-0.018000000000000002,-0.0386,-9.818399999999999,-0.001,0.0023,-0.0136
7.500187504687617,-0.0301,0.0213,-9.8136,0.00030000000000000003,0.0028,-0.0132
7.510187754693868,-0.0363,0.044700000000000004,-9.8176,-0.0012000000000000001,0.002,-0.0136
7.520188004700118,-0.006999999999999999,-0.0344,-9.7379,-0.0015,0.001,-0.0135
7.530188254706368,-0.0169,-0.0719,-9.8052,-0.0021,0.002,-0.013300000000000001
7.540188504712618,-0.0126,-0.0132,-9.8243,-0.00030000000000000003,0.0036,-0.012899999999999998
7.550188754718868,-0.0444,0.0119,-9.8459,-0.0006000000000000001,0.0029,-0.0134
7.560189004725118,-0.0243,-0.023299999999999998,-9.7638,0.00019999999999999998,0.0019,-0.0131
7.5701892547313685,-0.0184,-0.0747,-9.797699999999999,-0.0019,0.0025,-0.013
7.580189504737619,-0.010799999999999999,-0.0082,-9.8426,-0.0014,0.0036999999999999997,-0.0123
7.590189754743869,-0.07339999999999999,0.0319,-9.821100000000001,-0.0028,0.0031999999999999997,-0.0125
7.600190004750119,0.0127,0.0083,-9.8001,-0.0036999999999999997,0.0025,-0.012
7.610190254756369,-0.057999999999999996,-0.061399999999999996,-9.7876,-0.0048000000000000004,0.0023,-0.012199999999999999
7.620190504762619,0.0107,-0.0155,-9.822799999999999,-0.0057,0.0031999999999999997,-0.0113
7.630190754768869,-0.0718,-0.0202,-9.8231,-0.0048000000000000004,0.003,-0.0119
7.64019100477512,-0.0068,-0.0286,-9.7806,-0.0036999999999999997,0.002,-0.0117
7.65019125478137,-0.0146,-0.0962,-9.7592,-0.0033,0.0019,-0.0119
7.66019150478762,0.0039,-0.037599999999999995,-9.8481,-0.0033,0.0034999999999999996,-0.0114
7.67019175479387,-0.0805,0.0066,-9.8079,-0.0031999999999999997,0.0036999999999999997,-0.0118
7.680192004800121,0.0052,0.0029,-9.800799999999999,-0.0033,0.0028,-0.0113
7.690192254806371,-0.0254,-0.0772,-9.753,-0.0043,0.0021,-0.0117
7.700192504812621,-0.012899999999999998,-0.0639,-9.847499999999998,-0.0052,0.0036,-0.0107
7.710192754818872,-0.0665,-0.0304,-9.799299999999999,-0.0036,0.0041,-0.0112
7.720193004825122,-0.0121,-0.0157,-9.8159,-0.0034999999999999996,0.0034999999999999996,-0.0106
7.730193254831372,-0.0206,-0.052199999999999996,-9.7441,-0.0034,0.0029,-0.0106
7.740193504837622,-0.0212,-0.045399999999999996,-9.843300000000001,-0.005,0.0041,-0.0103
7.750193754843872,-0.0647,0.013300000000000001,-9.7926,-0.0048000000000000004,0.0036999999999999997,-0.010199999999999999
7.760194004850122,-0.0246,0.02,-9.7979,-0.0062,0.003,-0.0103
7.7701942548563725,-0.0073999999999999995,-0.0433,-9.7294,-0.0073999999999999995,0.0021999999999999997,-0.0103
7.780194504862623,-0.0388,-0.0603,-9.7896,-0.0093,0.0031,-0.01
7.790194754868873,-0.0249,-0.0206,-9.7929,-0.0085,0.0039,-0.009899999999999999
7.800195004875123,-0.054,-0.0024000000000000002,-9.8036,-0.009000000000000001,0.003,-0.01
7.810195254881373,-0.014499999999999999,-0.0465,-9.735899999999999,-0.0091,0.0024000000000000002,-0.009899999999999999
7.820195504887623,-0.0241,-0.0977,-9.8171,-0.0109,0.0033,-0.0097
7.830195754893873,-0.0283,-0.0482,-9.8009,-0.0089,0.0043,-0.009000000000000001
7.840196004900124,-0.049499999999999995,-0.0017,-9.8204,-0.009600000000000001,0.0036999999999999997,-0.0093
7.850196254906374,-0.025300000000000003,-0.036000000000000004,-9.745,-0.0097,0.0031,-0.0089
7.860196504912624,-0.0279,-0.1,-9.7868,-0.0112,0.0034999999999999996,-0.0091
7.870196754918874,-0.0116,-0.0441,-9.8158,-0.010799999999999999,0.0046,-0.0082
7.880197004925124,-0.08099999999999999,-0.0066,-9.7996,-0.0103,0.0036999999999999997,-0.0086
7.890197254931374,-0.0156,-0.04889999999999999,-9.7543,-0.009600000000000001,0.003,-0.008799999999999999
7.9001975049376245,-0.037,-0.15139999999999998,-9.7635,-0.009600000000000001,0.0031,-0.0087
7.910197754943875,0.001,-0.0737,-9.8303,-0.0087,0.0045000000000000005,-0.008
7.920198004950125,-0.0891,-0.0182,-9.805,-0.007899999999999999,0.0036,-0.0086
7.930198254956375,-0.0165,-0.0321,-9.7449,-0.007499999999999999,0.0021,-0.0083
7.940198504962625,-0.0116,-0.1152,-9.7526,-0.0084,0.0021,-0.0086
7.950198754968875,-0.029799999999999997,-0.0588,-9.7872,-0.0089,0.0036,-0.0073
7.9601990049751254,-0.0797,-0.0135,-9.7607,-0.0077,0.0036,-0.0078
7.970199254981376,-0.0007,-0.026099999999999998,-9.7594,-0.007899999999999999,0.0026999999999999997,-0.006999999999999999
7.980199504987626,-0.0184,-0.11009999999999999,-9.7409,-0.006999999999999999,0.0026999999999999997,-0.0073999999999999995
7.990199754993876,-0.0378,-0.0771,-9.8272,-0.0078,0.0046,-0.0065
8.000200005000126,-0.0772,-0.0273,-9.7804,-0.007499999999999999,0.004,-0.0069
8.010200255006376,-0.0248,-0.0283,-9.7806,-0.008,0.0028,-0.0067
8.020200505012626,-0.0146,-0.1049,-9.7129,-0.007899999999999999,0.0021999999999999997,-0.0071
8.030200755018877,-0.026099999999999998,-0.11280000000000001,-9.804,-0.0085,0.0036999999999999997,-0.0066
8.040201005025127,-0.0666,-0.0589,-9.7637,-0.0069,0.0039,-0.0066
8.050201255031377,-0.0206,-0.0449,-9.7987,-0.0071,0.0033,-0.0065
8.060201505037627,-0.0291,-0.10349999999999998,-9.733,-0.0055,0.0024000000000000002,-0.0065
8.070201755043877,-0.0654,-0.1281,-9.8052,-0.0067,0.003,-0.0062
8.080202005050127,-0.023299999999999998,-0.0709,-9.7851,-0.0056,0.0034,-0.0056
8.090202255056377,-0.0471,-0.0254,-9.8119,-0.0058,0.0026,-0.0057
8.100202505062628,-0.0362,-0.0567,-9.7055,-0.0063,0.0015999999999999999,-0.0055
8.110202755068878,-0.034699999999999995,-0.1601,-9.7834,-0.0076,0.0023,-0.0056
8.120203005075128,-0.0263,-0.0997,-9.7714,-0.0052,0.0036,-0.0046
8.130203255081378,-0.042499999999999996,-0.0655,-9.8174,-0.0043,0.0034,-0.0056
8.140203505087628,-0.0373,-0.0881,-9.7443,-0.0029,0.0025,-0.005
8.150203755093878,-0.0486,-0.134,-9.752099999999999,-0.0034,0.0024000000000000002,-0.0052
8.160204005100129,-0.012,-0.053899999999999997,-9.794500000000001,-0.0036,0.0031999999999999997,-0.0045000000000000005
8.170204255106379,-0.08360000000000001,-0.0356,-9.7927,-0.0039,0.0028,-0.005
8.180204505112629,-0.0346,-0.0493,-9.7195,-0.0048000000000000004,0.0017,-0.004699999999999999
8.190204755118879,-0.0254,-0.1623,-9.728399999999999,-0.0052,0.002,-0.0049
8.20020500512513,-0.022,-0.10269999999999999,-9.8103,-0.0052,0.0034,-0.0036999999999999997
8.21020525513138,-0.0939,-0.06999999999999999,-9.7834,-0.0036,0.0029,-0.0043
8.22020550513763,-0.0275,-0.0673,-9.7447,-0.003,0.0015999999999999999,-0.0041
8.23020575514388,-0.0206,-0.1641,-9.748999999999999,-0.0034,0.0017,-0.0042
8.24020600515013,-0.0409,-0.08729999999999999,-9.8074,-0.0034999999999999996,0.0026999999999999997,-0.0031
8.25020625515638,-0.08099999999999999,-0.0319,-9.7496,-0.004,0.0024000000000000002,-0.0036999999999999997
8.26020650516263,-0.0259,-0.0745,-9.7622,-0.004699999999999999,0.0014,-0.0034
8.27020675516888,-0.0179,-0.1545,-9.7158,-0.0048000000000000004,0.0014,-0.0038
8.28020700517513,-0.0399,-0.13999999999999999,-9.8067,-0.0052,0.003,-0.003
8.29020725518138,-0.0861,-0.07529999999999999,-9.7815,-0.0045000000000000005,0.0025,-0.0033
8.30020750518763,-0.0362,-0.0712,-9.772699999999999,-0.004699999999999999,0.0012000000000000001,-0.0033
8.31020775519388,-0.0199,-0.11850000000000001,-9.7276,-0.0045000000000000005,0.00039999999999999996,-0.0034
8.320208005200131,-0.0567,-0.1364,-9.781099999999999,-0.0055,0.0018,-0.0031
8.330208255206381,-0.0581,-0.0891,-9.740400000000001,-0.0048000000000000004,0.0021,-0.0028
8.340208505212631,-0.0321,-0.0751,-9.7768,-0.0050999999999999995,0.0015999999999999999,-0.0025
8.350208755218882,-0.0211,-0.10540000000000001,-9.729,-0.0036999999999999997,0.0007,-0.0026
8.360209005225132,-0.05910000000000001,-0.1586,-9.8037,-0.0055,0.0017,-0.0028
8.370209255231382,-0.0553,-0.11499999999999999,-9.7472,-0.0031,0.0015999999999999999,-0.0018
8.380209505237632,-0.043199999999999995,-0.0779,-9.7721,-0.0025,0.0007,-0.0025
8.390209755243882,-0.0246,-0.1183,-9.719899999999999,-0.00019999999999999998,0.00030000000000000003,-0.002
8.400210005250132,-0.0588,-0.1685,-9.780899999999999,-0.0013,0.0012000000000000001,-0.0024000000000000002
8.410210255256382,-0.0337,-0.1006,-9.7568,0.00019999999999999998,0.0015,-0.0017
8.420210505262633,-0.07039999999999999,-0.0726,-9.7654,-0.00030000000000000003,0.0006000000000000001,-0.0024000000000000002
8.430210755268883,-0.030899999999999997,-0.11969999999999999,-9.728499999999999,0.0012000000000000001,0.0,-0.0018
8.440211005275133,-0.0414,-0.1594,-9.7964,0.0,0.0006000000000000001,-0.0019
8.450211255281383,-0.034499999999999996,-0.1367,-9.7794,0.0015999999999999999,0.0010999999999999998,-0.0014
8.460211505287633,-0.07919999999999999,-0.0968,-9.7788,0.0028,0.00039999999999999996,-0.0015999999999999999
8.470211755293883,-0.0424,-0.1062,-9.7286,0.0043,9.999999999999999e-05,-0.0012000000000000001
8.480212005300134,-0.019,-0.167,-9.7783,0.0031,0.0007,-0.0013
8.490212255306384,-0.0513,-0.12719999999999998,-9.792399999999999,0.0038,0.001,-0.0007
8.500212505312634,-0.08589999999999999,-0.0805,-9.7765,0.0041,0.0,-0.0013
8.510212755318884,-0.0224,-0.1095,-9.743599999999999,0.0050999999999999995,-0.0005,-0.001
8.520213005325134,-0.0359,-0.20339999999999997,-9.752099999999999,0.0063,-9.999999999999999e-05,-0.0014
8.530213255331384,-0.0399,-0.1432,-9.8177,0.0069,0.0012000000000000001,-0.00039999999999999996
8.540213505337634,-0.0861,-0.10790000000000001,-9.794500000000001,0.0087,0.0005,-0.0012000000000000001
8.550213755343885,-0.0162,-0.10189999999999999,-9.7613,0.009600000000000001,-0.0005,-0.0007999999999999999
8.560214005350135,-0.034999999999999996,-0.1571,-9.7372,0.0093,-0.0009,-0.0012000000000000001
8.570214255356385,-0.046099999999999995,-0.1644,-9.7911,0.008,0.00039999999999999996,-0.0005
8.580214505362635,-0.0766,-0.0954,-9.7715,0.01,0.00019999999999999998,-0.0005
8.590214755368885,-0.0212,-0.0854,-9.7776,0.009000000000000001,-0.00030000000000000003,-0.0007
8.600215005375135,-0.0106,-0.1785,-9.7711,0.0093,-0.0006000000000000001,-0.0007999999999999999
8.610215255381386,-0.0788,-0.15889999999999999,-9.7994,0.009600000000000001,0.00039999999999999996,-0.00039999999999999996
8.620215505387636,-0.052199999999999996,-0.0949,-9.7591,0.0111,0.0007,-0.00030000000000000003
8.630215755393886,-0.025799999999999997,-0.07479999999999999,-9.8006,0.0109,-0.0,-0.00030000000000000003
8.640216005400136,-0.043699999999999996,-0.1047,-9.7446,0.0106,-0.0007,-0.00019999999999999998
8.650216255406386,-0.057499999999999996,-0.1354,-9.7713,0.0095,-0.00030000000000000003,-0.0005
8.660216505412636,-0.0327,-0.0898,-9.7616,0.0097,-0.00019999999999999998,9.999999999999999e-05
8.670216755418886,-0.0577,-0.0759,-9.7851,0.01,0.00019999999999999998,-0.00039999999999999996
8.680217005425137,-0.0409,-0.1142,-9.7531,0.0103,-0.0005,9.999999999999999e-05
8.690217255431387,-0.0468,-0.1494,-9.7994,0.0087,-0.00030000000000000003,-9.999999999999999e-05
8.700217505437637,-0.0289,-0.10740000000000001,-9.8055,0.0105,9.999999999999999e-05,0.00039999999999999996
8.710217755443887,-0.0717,-0.0593,-9.794,0.0105,-0.00039999999999999996,-0.0
8.720218005450137,-0.029300000000000003,-0.1085,-9.7207,0.0118,-0.0014,0.00030000000000000003
8.730218255456387,-0.019200000000000002,-0.1901,-9.7839,0.0109,-0.0006000000000000001,9.999999999999999e-05
8.740218505462638,-0.046299999999999994,-0.1156,-9.8039,0.013,0.001,0.001
8.750218755468888,-0.08739999999999999,-0.057499999999999996,-9.799199999999999,0.0126,0.0,0.00039999999999999996
8.760219005475138,-0.031100000000000003,-0.0668,-9.7431,0.0131,-0.0012000000000000001,0.0007999999999999999
8.770219255481388,-0.034999999999999996,-0.1545,-9.7638,0.0112,-0.001,0.00030000000000000003
8.780219505487638,-0.0524,-0.124,-9.7887,0.0121,-9.999999999999999e-05,0.0012000000000000001
8.790219755493888,-0.0749,-0.06989999999999999,-9.7755,0.0121,-0.0005,0.0007999999999999999
8.800220005500138,-0.0229,-0.0769,-9.767299999999999,0.012899999999999998,-0.0009,0.0007999999999999999
8.810220255506389,-0.0416,-0.13140000000000002,-9.7678,0.0127,-0.0007999999999999999,0.0007
8.820220505512639,-0.046099999999999995,-0.0947,-9.8117,0.0115,0.00030000000000000003,0.0014
8.830220755518889,-0.0903,-0.037599999999999995,-9.7937,0.0109,-9.999999999999999e-05,0.0015999999999999999
8.84022100552514,-0.0078,-0.0278,-9.78,0.010199999999999999,-0.0007,0.0014
8.85022125553139,-0.0382,-0.12539999999999998,-9.766399999999999,0.009399999999999999,-0.0009,0.0012000000000000001
8.86022150553764,-0.0577,-0.13470000000000001,-9.8088,0.0084,0.0006000000000000001,0.0019
8.87022175554389,-0.07029999999999999,-0.0711,-9.804,0.01,0.0005,0.0018
8.88022200555014,-0.029300000000000003,-0.0498,-9.8089,0.0098,-0.00030000000000000003,0.0019
8.89022225555639,-0.018000000000000002,-0.1051,-9.7678,0.0105,-0.0010999999999999998,0.0015999999999999999
8.90022250556264,-0.07629999999999999,-0.1397,-9.799199999999999,0.0091,-0.00030000000000000003,0.0019
8.91022275556889,-0.0452,-0.08589999999999999,-9.7651,0.0111,-0.0,0.0024000000000000002
8.92022300557514,-0.0439,-0.0401,-9.7994,0.0104,-0.00030000000000000003,0.0023
8.93022325558139,-0.0395,-0.0769,-9.7447,0.01,-0.0010999999999999998,0.0023
8.94022350558764,-0.0343,-0.1387,-9.814,0.007499999999999999,-0.00019999999999999998,0.0021
8.95022375559389,-0.0524,-0.060899999999999996,-9.804699999999999,0.0083,9.999999999999999e-05,0.0031
8.960224005600141,-0.07569999999999999,-0.0305,-9.7881,0.0077,-0.0,0.0021999999999999997
8.970224255606391,-0.019799999999999998,-0.0944,-9.745800000000001,0.0078,-0.0006000000000000001,0.003
8.980224505612641,-0.054,-0.13749999999999998,-9.7982,0.006999999999999999,0.00019999999999999998,0.0026999999999999997
8.990224755618891,-0.0391,-0.0673,-9.7976,0.0077,0.001,0.0031999999999999997
9.000225005625142,-0.0884,-0.0328,-9.7807,0.008,0.0005,0.0028
9.010225255631392,-0.014100000000000001,-0.0608,-9.7564,0.0076,-0.00019999999999999998,0.0033
9.020225505637642,-0.0647,-0.1149,-9.7921,0.0055,0.0,0.0031
9.030225755643892,-0.0338,-0.0701,-9.8223,0.0056,0.0006000000000000001,0.0036
9.040226005650142,-0.0957,-0.0635,-9.770299999999999,0.0059,-9.999999999999999e-05,0.0029
9.050226255656392,-0.006999999999999999,-0.0784,-9.7659,0.0058,-0.0005,0.0036999999999999997
9.060226505662643,-0.0424,-0.1461,-9.7923,0.0050999999999999995,0.0,0.0031
9.070226755668893,-0.0423,-0.079,-9.8234,0.005,0.0012000000000000001,0.0041
9.080227005675143,-0.0962,-0.0482,-9.7795,0.0058,0.00019999999999999998,0.0034999999999999996
9.090227255681393,-0.029599999999999998,-0.032,-9.7447,0.0042,-0.0007999999999999999,0.0039
9.100227505687643,-0.0343,-0.1402,-9.765799999999999,0.0024000000000000002,-0.00019999999999999998,0.0034999999999999996
9.110227755693893,-0.0402,-0.097,-9.8193,0.002,0.0013,0.004399999999999999
9.120228005700143,-0.083,-0.026699999999999998,-9.793399999999998,0.0021,0.0009,0.004
9.130228255706394,-0.0369,-0.0494,-9.7622,0.0007,-0.00019999999999999998,0.0042
9.140228505712644,-0.028200000000000003,-0.12919999999999998,-9.7511,0.001,9.999999999999999e-05,0.0034999999999999996
9.150228755718894,-0.0541,-0.13899999999999998,-9.8118,-0.00039999999999999996,0.0015999999999999999,0.0045000000000000005
9.160229005725144,-0.0789,-0.0321,-9.7814,0.0015999999999999999,0.0013,0.004699999999999999
9.170229255731394,-0.0427,-0.039599999999999996,-9.7833,0.0009,0.0,0.0041
9.180229505737644,-0.0413,-0.10690000000000001,-9.7315,0.0009,-0.0005,0.0045000000000000005
9.190229755743895,-0.0555,-0.1327,-9.818200000000001,-0.00030000000000000003,0.0007,0.004399999999999999
9.200230005750145,-0.0505,-0.0582,-9.7812,0.0006000000000000001,0.0010999999999999998,0.0049
9.210230255756395,-0.0505,-0.06509999999999999,-9.8093,0.0010999999999999998,0.0007999999999999999,0.0045000000000000005
9.220230505762645,-0.0394,-0.11379999999999998,-9.7494,0.0024000000000000002,0.0,0.0048000000000000004
9.230230755768895,-0.038,-0.1646,-9.807599999999999,0.0015,0.0009,0.0045000000000000005
9.240231005775145,-0.0467,-0.09269999999999999,-9.8026,0.004,0.0015999999999999999,0.0052
9.250231255781395,-0.0713,-0.055099999999999996,-9.802,0.0048000000000000004,0.0015999999999999999,0.0046
9.260231505787646,-0.0362,-0.0706,-9.757200000000001,0.0036999999999999997,0.0009,0.0052
9.270231755793896,-0.0604,-0.1144,-9.8009,0.0015999999999999999,0.0013,0.005
9.280232005800146,-0.0346,-0.06849999999999999,-9.8242,0.0021,0.0015999999999999999,0.0056
9.290232255806396,-0.0941,-0.055999999999999994,-9.768699999999999,0.0015,0.001,0.0049
9.300232505812646,-0.028999999999999998,-0.1099,-9.725999999999999,0.0024000000000000002,0.0005,0.005399999999999999
9.310232755818896,-0.0494,-0.1611,-9.7888,0.0018,0.0013,0.005399999999999999
9.320233005825147,-0.0493,-0.0796,-9.7958,0.0028,0.002,0.0059
9.330233255831397,-0.0772,-0.0334,-9.792399999999999,0.0026,0.0012000000000000001,0.0050999999999999995
9.340233505837647,-0.030299999999999997,-0.06449999999999999,-9.7779,0.0026,0.0006000000000000001,0.0055
9.350233755843897,-0.0477,-0.1299,-9.7666,0.0015999999999999999,0.001,0.0055
9.360234005850147,-0.043,-0.07039999999999999,-9.789299999999999,0.0013,0.002,0.006
9.370234255856397,-0.08549999999999999,-0.0566,-9.7764,0.0013,0.0018,0.0058
9.380234505862648,-0.0346,-0.0683,-9.7577,0.0014,0.0014,0.0062
9.390234755868898,-0.0386,-0.1402,-9.7327,0.0010999999999999998,0.0015,0.006
9.400235005875148,-0.0471,-0.0764,-9.8142,0.0009,0.0024000000000000002,0.0066
9.410235255881398,-0.0854,-0.0647,-9.779300000000001,0.0015,0.0024000000000000002,0.0062
9.420235505887648,-0.025599999999999998,-0.0589,-9.8024,0.0012000000000000001,0.0015999999999999999,0.0065
9.430235755893898,-0.05689999999999999,-0.1106,-9.7509,0.0009,0.0010999999999999998,0.0060999999999999995
9.440236005900148,-0.07029999999999999,-0.09799999999999999,-9.7936,-0.0014,0.0018,0.0065
9.450236255906399,-0.05689999999999999,-0.055,-9.7624,-0.0007999999999999999,0.0019,0.0068
9.460236505912649,-0.0526,-0.0332,-9.771,-0.002,0.0014,0.0068
9.470236755918899,-0.0359,-0.09759999999999999,-9.7345,-0.0029,0.0010999999999999998,0.0068
9.480237005925149,-0.044,-0.12789999999999999,-9.8206,-0.0046,0.0021,0.006999999999999999
9.4902372559314,-0.0769,-0.0673,-9.7745,-0.0038,0.0024000000000000002,0.0073999999999999995
9.50023750593765,-0.052199999999999996,-0.040299999999999996,-9.7794,-0.004,0.0015,0.0073
9.5102377559439,-0.050600000000000006,-0.10349999999999998,-9.7372,-0.0029,0.0009,0.0073
9.52023800595015,-0.0301,-0.15889999999999999,-9.7734,-0.0036,0.0021,0.0073999999999999995
9.5302382559564,-0.07479999999999999,-0.075,-9.768,-0.0018,0.0028,0.0081
9.54023850596265,-0.060599999999999994,-0.0332,-9.774,-0.0018,0.0021,0.0076
9.5502387559689,-0.0654,-0.08689999999999999,-9.7386,-0.0018,0.0014,0.0081
9.56023900597515,-0.0372,-0.1298,-9.7799,-0.0029,0.0015,0.0077
9.5702392559814,-0.062200000000000005,-0.08310000000000001,-9.7627,-0.0031999999999999997,0.0021,0.0083
9.58023950598765,-0.0701,-0.0665,-9.775699999999999,-0.0025,0.0017,0.0081
9.5902397559939,-0.054299999999999994,-0.11499999999999999,-9.7218,-0.0015,0.0014,0.0082
9.600240006000151,-0.0509,-0.1523,-9.7546,-0.0015999999999999999,0.0014,0.0087
9.610240256006401,-0.0338,-0.0665,-9.8161,-0.0010999999999999998,0.0021999999999999997,0.0091
9.620240506012651,-0.10419999999999999,-0.0344,-9.7738,-0.0007,0.0017,0.0085
9.630240756018901,-0.026899999999999997,-0.0944,-9.7341,-0.0015999999999999999,0.0010999999999999998,0.008799999999999999
9.640241006025152,-0.068,-0.15839999999999999,-9.7497,-0.0025,0.0012000000000000001,0.0089
9.650241256031402,-0.040799999999999996,-0.1072,-9.8002,-0.0031,0.0025,0.0095
9.660241506037652,-0.089,-0.0688,-9.789200000000001,-0.0021,0.002,0.009000000000000001
9.670241756043902,-0.023,-0.0911,-9.7541,-0.0015,0.0012000000000000001,0.0091
9.680242006050152,-0.0578,-0.15410000000000001,-9.7243,-0.0015999999999999999,0.0009,0.0091
9.690242256056402,-0.0672,-0.11549999999999999,-9.771199999999999,-0.001,0.0021999999999999997,0.009899999999999999
9.700242506062652,-0.08360000000000001,-0.0666,-9.767199999999999,-0.00030000000000000003,0.0018,0.0097
9.710242756068903,-0.0262,-0.0599,-9.7638,-0.001,0.001,0.0098
9.720243006075153,-0.056999999999999995,-0.145,-9.7378,-0.0015,0.0007999999999999999,0.0093
9.730243256081403,-0.0625,-0.151,-9.7928,-0.0021,0.0018,0.01
9.740243506087653,-0.0624,-0.055900000000000005,-9.7864,-0.0012000000000000001,0.0018,0.0103
9.750243756093903,-0.048999999999999995,-0.0817,-9.7864,-0.0018,0.0012000000000000001,0.009899999999999999
9.760244006100153,-0.0497,-0.14129999999999998,-9.7406,-0.0010999999999999998,0.00039999999999999996,0.009899999999999999
9.770244256106404,-0.0677,-0.1593,-9.7567,-0.0028,0.0014,0.0101
9.780244506112654,-0.0496,-0.0676,-9.7518,-0.0012000000000000001,0.0021,0.0107
9.790244756118904,-0.0771,-0.0643,-9.7637,-0.0028,0.0015,0.0104
9.800245006125154,-0.0457,-0.12689999999999999,-9.7518,-0.0036999999999999997,0.0005,0.0105
9.810245256131404,-0.048799999999999996,-0.1459,-9.7829,-0.0049,0.001,0.0106
9.820245506137654,-0.0353,-0.0842,-9.779599999999999,-0.0036999999999999997,0.0015999999999999999,0.011
9.830245756143905,-0.0914,-0.1168,-9.7734,-0.004,0.0013,0.0103
9.840246006150155,-0.0484,-0.1436,-9.718300000000001,-0.0031999999999999997,0.0007999999999999999,0.0113
9.850246256156405,-0.0284,-0.1658,-9.7768,-0.0033,0.0009,0.010799999999999999
9.860246506162655,-0.0561,-0.08360000000000001,-9.769,-0.0023,0.0009,0.0114
9.870246756168905,-0.0889,-0.09849999999999999,-9.7606,-0.0012000000000000001,0.0007999999999999999,0.0107
9.880247006175155,-0.046,-0.1389,-9.7134,-0.0006000000000000001,9.999999999999999e-05,0.0114
9.890247256181405,-0.0281,-0.1875,-9.7875,0.0007,0.0007999999999999999,0.0111
9.900247506187656,-0.0784,-0.1268,-9.7719,0.0015999999999999999,0.001,0.0117
9.910247756193906,-0.0672,-0.0696,-9.7744,0.0034,9.999999999999999e-05,0.0114
9.920248006200156,-0.0634,-0.10759999999999999,-9.7004,0.0019,-0.00030000000000000003,0.0111
9.930248256206406,-0.0275,-0.1745,-9.748999999999999,0.0007999999999999999,0.0,0.0115
9.940248506212656,-0.0649,-0.12240000000000001,-9.757200000000001,0.0,0.0006000000000000001,0.012199999999999999
9.950248756218906,-0.0793,-0.062,-9.7662,0.0013,0.00039999999999999996,0.0115
9.960249006225157,-0.0455,-0.10529999999999999,-9.7236,0.00019999999999999998,-0.00030000000000000003,0.0116
9.970249256231407,-0.0317,-0.1983,-9.7378,0.0013,-0.00030000000000000003,0.0115
9.980249506237657,-0.064,-0.1422,-9.8041,0.0006000000000000001,0.0006000000000000001,0.0123
9.990249756243907,-0.088,-0.05959999999999999,-9.7851,0.0013,0.00019999999999999998,0.0121
10.000250006250157,-0.0292,-0.0812,-9.767299999999999,0.0005,-0.0007,0.0119
10.010250256256407,-0.0553,-0.17509999999999998,-9.7096,0.00019999999999999998,-0.0015999999999999999,0.0118
10.020250506262657,-0.0455,-0.1703,-9.7681,-0.0006000000000000001,-0.0006000000000000001,0.0123
10.030250756268908,-0.0751,-0.0951,-9.7577,0.0017,-9.999999999999999e-05,0.0124
10.040251006275158,-0.0393,-0.09319999999999999,-9.778599999999999,0.0017,-0.00019999999999999998,0.0123
10.050251256281408,-0.0603,-0.15089999999999998,-9.738299999999999,0.0019,-0.0015,0.0124
10.060251506287658,-0.053,-0.167,-9.8072,0.0015999999999999999,-0.0007999999999999999,0.0125
10.070251756293908,-0.0639,-0.0766,-9.7692,0.0029,-0.0007,0.012799999999999999
10.080252006300158,-0.0602,-0.0759,-9.780899999999999,0.0023,-0.001,0.0126
10.090252256306409,-0.0446,-0.1569,-9.728299999999999,0.0024000000000000002,-0.0019,0.0126
10.100252506312659,-0.027999999999999997,-0.17229999999999998,-9.7995,0.0019,-0.0007999999999999999,0.012799999999999999
10.110252756318909,-0.06449999999999999,-0.11599999999999999,-9.7648,0.0033,-0.0005,0.0131
10.120253006325159,-0.0676,-0.0886,-9.7887,0.0036999999999999997,-0.001,0.0126
10.13025325633141,-0.0675,-0.16219999999999998,-9.7622,0.0034,-0.0015999999999999999,0.013
10.14025350633766,-0.0334,-0.14049999999999999,-9.782399999999999,0.0026999999999999997,-0.0014,0.0132
10.15025375634391,-0.0404,-0.11019999999999999,-9.7904,0.0021,-0.0012000000000000001,0.0131
10.16025400635016,-0.0866,-0.0954,-9.7815,0.0036999999999999997,-0.0018,0.0134
10.17025425635641,-0.0505,-0.11750000000000001,-9.7072,0.0033,-0.0023,0.0132
10.18025450636266,-0.0249,-0.1853,-9.772,0.0021999999999999997,-0.002,0.013300000000000001
10.19025475636891,-0.0492,-0.1327,-9.7834,0.0026999999999999997,-0.0014,0.013699999999999999
10.20025500637516,-0.0737,-0.0847,-9.8136,0.0036,-0.0015999999999999999,0.0132
10.21025525638141,-0.054299999999999994,-0.10039999999999999,-9.7249,0.0036,-0.0023,0.013300000000000001
10.22025550638766,-0.0201,-0.1954,-9.783999999999999,0.0025,-0.0023,0.013300000000000001
10.23025575639391,-0.05959999999999999,-0.123,-9.8011,0.003,-0.0014,0.0139
10.24025600640016,-0.0824,-0.0465,-9.8024,0.0026,-0.0017,0.013699999999999999
10.250256256406411,-0.0305,-0.0992,-9.750599999999999,0.0019,-0.0023,0.0136
10.260256506412661,-0.040299999999999996,-0.1769,-9.7699,0.0019,-0.0021999999999999997,0.0139
10.270256756418911,-0.0631,-0.1465,-9.8217,0.001,-0.001,0.014100000000000001
10.280257006425161,-0.08850000000000001,-0.0602,-9.7974,0.0015999999999999999,-0.0021999999999999997,0.0144
10.290257256431412,-0.00030000000000000003,-0.0724,-9.7765,0.0006000000000000001,-0.0031999999999999997,0.013699999999999999
10.300257506437662,-0.0429,-0.1809,-9.7513,0.0006000000000000001,-0.0034,0.0136
10.310257756443912,-0.0708,-0.17129999999999998,-9.7823,-0.00030000000000000003,-0.0021999999999999997,0.0144
10.320258006450162,-0.0518,-0.0653,-9.7551,0.0007,-0.0024000000000000002,0.0146
10.330258256456412,-0.0228,-0.0789,-9.816999999999998,-9.999999999999999e-05,-0.0028,0.0142
10.340258506462662,-0.0643,-0.15610000000000002,-9.7768,-9.999999999999999e-05,-0.0034999999999999996,0.0144
10.350258756468913,-0.0467,-0.15510000000000002,-9.7854,-0.0013,-0.0031,0.014499999999999999
10.360259006475163,-0.053700000000000005,-0.10339999999999999,-9.7597,-9.999999999999999e-05,-0.0026,0.014999999999999998
10.370259256481413,-0.0416,-0.0964,-9.8141,-0.00019999999999999998,-0.0024000000000000002,0.0146
10.380259506487663,-0.0693,-0.11950000000000001,-9.748800000000001,-0.00030000000000000003,-0.0031999999999999997,0.014899999999999998
10.390259756493913,-0.0427,-0.1774,-9.786200000000001,-0.0015999999999999999,-0.0031999999999999997,0.0144
10.400260006500163,-0.029999999999999995,-0.1166,-9.7594,-0.0006000000000000001,-0.003,0.015300000000000001
10.410260256506414,-0.0675,-0.084,-9.8072,-0.0014,-0.0028,0.0146
10.420260506512664,-0.0702,-0.1343,-9.7402,-0.0025,-0.0039,0.014999999999999998
10.430260756518914,0.0046,-0.2019,-9.8217,-0.003,-0.0036,0.0147
10.440261006525164,-0.0469,-0.12739999999999999,-9.7968,-0.0010999999999999998,-0.0034999999999999996,0.015300000000000001
10.450261256531414,-0.0841,-0.0893,-9.7926,-0.0010999999999999998,-0.0036999999999999997,0.0147
10.460261506537664,-0.05469999999999999,-0.1554,-9.7477,-0.0005,-0.0041,0.0151
10.470261756543914,-0.023,-0.22729999999999997,-9.8306,-9.999999999999999e-05,-0.0038,0.0152
10.480262006550165,-0.027099999999999996,-0.11889999999999999,-9.8272,0.0019,-0.0034999999999999996,0.0154
10.490262256556415,-0.0698,-0.08,-9.8277,0.0026,-0.0036,0.0147
10.500262506562665,-0.050699999999999995,-0.1075,-9.7528,0.0018,-0.0045000000000000005,0.015300000000000001
10.510262756568915,-0.0354,-0.1884,-9.7705,0.0005,-0.0045000000000000005,0.0151
10.520263006575165,-0.0438,-0.14859999999999998,-9.7937,0.0015999999999999999,-0.0042,0.0156
10.530263256581415,-0.0503,-0.1005,-9.828899999999999,0.0031999999999999997,-0.0036999999999999997,0.0154
10.540263506587666,-0.0372,-0.1358,-9.7815,0.0046,-0.0036,0.014999999999999998
10.550263756593916,-0.0445,-0.2002,-9.7897,0.004699999999999999,-0.0041,0.015300000000000001
10.560264006600166,-0.0557,-0.13799999999999998,-9.8291,0.0045000000000000005,-0.0043,0.0156
10.570264256606416,-0.0275,-0.0808,-9.8407,0.0049,-0.004399999999999999,0.0152
10.580264506612666,-0.037399999999999996,-0.088,-9.789200000000001,0.0056,-0.004699999999999999,0.0155
10.590264756618916,-0.025,-0.17479999999999998,-9.7835,0.0045000000000000005,-0.0049,0.014799999999999999
10.600265006625166,-0.0661,-0.1678,-9.8194,0.0031999999999999997,-0.004,0.016
10.610265256631417,-0.054299999999999994,-0.088,-9.808300000000001,0.0052,-0.0036999999999999997,0.0161
10.620265506637667,-0.0224,-0.08099999999999999,-9.8018,0.0052,-0.0046,0.0154
10.630265756643917,-0.0479,-0.16670000000000001,-9.7774,0.0048000000000000004,-0.0053,0.0154
10.640266006650167,-0.038900000000000004,-0.1917,-9.7985,0.0045000000000000005,-0.004699999999999999,0.0155
10.650266256656417,-0.0412,-0.0939,-9.8132,0.0057,-0.0042,0.0162
10.660266506662667,-0.0467,-0.0826,-9.8241,0.0060999999999999995,-0.0043,0.0155
10.670266756668918,-0.0494,-0.1307,-9.7955,0.0049,-0.0050999999999999995,0.0157
10.680267006675168,-0.028499999999999998,-0.2066,-9.8194,0.0048000000000000004,-0.0048000000000000004,0.0151
10.690267256681418,-0.0409,-0.1362,-9.790600000000001,0.0060999999999999995,-0.0049,0.0161
10.700267506687668,-0.0445,-0.0723,-9.8174,0.0072,-0.0046,0.0155
10.710267756693918,-0.062299999999999994,-0.1262,-9.7779,0.0063999999999999994,-0.005,0.015799999999999998
10.720268006700168,-0.017599999999999998,-0.1576,-9.8097,0.0053,-0.0052,0.015799999999999998
10.730268256706418,-0.0503,-0.09899999999999999,-9.790600000000001,0.004699999999999999,-0.0055,0.016
10.740268506712669,-0.0283,-0.0722,-9.8292,0.0052,-0.005,0.0157
10.750268756718919,-0.055,-0.1291,-9.7846,0.0046,-0.005399999999999999,0.016
10.760269006725169,-0.0276,-0.1882,-9.8069,0.0045000000000000005,-0.0055,0.0157
10.770269256731419,-0.037399999999999996,-0.1391,-9.809099999999999,0.0052,-0.005399999999999999,0.0161
10.78026950673767,-0.0446,-0.0911,-9.8474,0.0067,-0.005,0.0155
10.79026975674392,-0.0456,-0.10889999999999998,-9.7918,0.006999999999999999,-0.0053,0.015799999999999998
10.80027000675017,-0.0321,-0.1596,-9.793,0.0067,-0.0056,0.015899999999999997
10.81027025675642,-0.035199999999999995,-0.122,-9.8292,0.0072,-0.0055,0.0161
10.82027050676267,-0.0528,-0.076,-9.8467,0.0082,-0.0052,0.0161
10.83027075676892,-0.0359,-0.0896,-9.7886,0.008799999999999999,-0.0058,0.016
10.84027100677517,-0.0010999999999999998,-0.17359999999999998,-9.8153,0.0076,-0.0060999999999999995,0.015799999999999998
10.85027125678142,-0.061399999999999996,-0.1384,-9.829799999999999,0.007499999999999999,-0.0055,0.0165
10.86027150678767,-0.0342,-0.0707,-9.8341,0.009000000000000001,-0.005399999999999999,0.016
10.87027175679392,-0.0333,-0.0813,-9.8104,0.0086,-0.0060999999999999995,0.015899999999999997
10.88027200680017,-0.0326,-0.18,-9.7876,0.0083,-0.0066,0.015799999999999998
10.890272256806421,-0.0412,-0.15209999999999999,-9.8179,0.0086,-0.0057,0.0163
10.900272506812671,-0.0398,-0.0558,-9.826500000000001,0.0091,-0.005399999999999999,0.0164
10.910272756818921,-0.0247,-0.054299999999999994,-9.8318,0.0086,-0.0060999999999999995,0.016
10.920273006825171,-0.0485,-0.1289,-9.7792,0.0073999999999999995,-0.0069,0.015799999999999998
10.930273256831422,-0.0278,-0.1533,-9.8084,0.0066,-0.0060999999999999995,0.0163
10.940273506837672,-0.0195,-0.0749,-9.8231,0.0077,-0.005399999999999999,0.0166
10.950273756843922,-0.052,-0.051699999999999996,-9.8446,0.0078,-0.0056,0.0163
10.960274006850172,-0.0286,-0.11919999999999999,-9.7929,0.0069,-0.0066,0.0163
10.970274256856422,-0.0366,-0.1484,-9.8152,0.0066,-0.0062,0.016
10.980274506862672,-0.022,-0.0765,-9.809,0.006999999999999999,-0.0057,0.0168
10.990274756868923,-0.0397,-0.048999999999999995,-9.8423,0.006,-0.0055,0.0162
11.000275006875173,-0.0353,-0.10389999999999999,-9.8173,0.0055,-0.0063999999999999994,0.0164
11.010275256881423,-0.0036,-0.1419,-9.843499999999999,0.0036999999999999997,-0.0063,0.0162
11.020275506887673,-0.048799999999999996,-0.048799999999999996,-9.835199999999999,0.0034,-0.006,0.0169
11.030275756893923,-0.0431,-0.0164,-9.846,0.0015999999999999999,-0.0059,0.0164
11.040276006900173,-0.0393,-0.0904,-9.8124,9.999999999999999e-05,-0.0067,0.0166
11.050276256906423,0.0095,-0.1495,-9.8443,-0.0007,-0.0066,0.0165
11.060276506912674,-0.0448,-0.0956,-9.831299999999999,0.00019999999999999998,-0.006,0.0171
11.070276756918924,-0.0326,-0.0583,-9.8391,0.0018,-0.0056,0.0165
11.080277006925174,-0.045399999999999996,-0.0798,-9.8231,0.0015999999999999999,-0.0059,0.0169
11.090277256931424,-0.0092,-0.117,-9.825299999999999,0.0015999999999999999,-0.0062,0.017
11.100277506937674,-0.0279,-0.05159999999999999,-9.8521,0.0007,-0.0057,0.0173
11.110277756943924,-0.0485,-0.0398,-9.8592,0.002,-0.0057,0.0169
11.120278006950175,-0.027099999999999996,-0.089,-9.8111,0.0015999999999999999,-0.006,0.0171
11.130278256956425,-0.0134,-0.1343,-9.797799999999999,0.0023,-0.006,0.0174
11.140278506962675,-0.031599999999999996,-0.11689999999999999,-9.8513,0.0019,-0.0053,0.0174
11.150278756968925,-0.038,-0.0487,-9.8665,0.004399999999999999,-0.0050999999999999995,0.0177
11.160279006975175,-0.028999999999999998,-0.06369999999999999,-9.8285,0.0042,-0.0060999999999999995,0.0172
11.170279256981425,-0.0124,-0.1378,-9.8149,0.0038,-0.0066,0.0171
11.180279506987675,-0.0411,-0.1369,-9.8461,0.0031999999999999997,-0.0050999999999999995,0.017499999999999998
11.190279756993926,-0.008,-0.053200000000000004,-9.885299999999999,0.0050999999999999995,-0.0043,0.0179
11.200280007000176,-0.0458,-0.06999999999999999,-9.8375,0.0045000000000000005,-0.0052,0.0171
11.210280257006426,-0.0007,-0.13,-9.8528,0.0038,-0.0058,0.017499999999999998
11.220280507012676,-0.0291,-0.15139999999999998,-9.8463,0.004,-0.005,0.0173
11.230280757018926,-0.0172,-0.036000000000000004,-9.8593,0.0058,-0.004399999999999999,0.0184
11.240281007025176,-0.0544,-0.0363,-9.7985,0.0057,-0.0053,0.0177
11.250281257031427,-0.014799999999999999,-0.1003,-9.8177,0.0052,-0.0058,0.0178
11.260281507037677,-0.0045000000000000005,-0.147,-9.8234,0.0046,-0.0050999999999999995,0.0177
11.270281757043927,-0.0081,-0.0691,-9.8718,0.0066,-0.0042,0.0183
11.280282007050177,-0.0666,-0.0505,-9.834,0.0063,-0.004699999999999999,0.0174
11.290282257056427,-0.0207,-0.11750000000000001,-9.819700000000001,0.0067,-0.0053,0.017599999999999998
11.300282507062677,0.0086,-0.1396,-9.8438,0.0063,-0.0049,0.0177
11.310282757068927,-0.0157,-0.04,-9.8829,0.0069,-0.0036999999999999997,0.0182
11.320283007075178,-0.0789,-0.0248,-9.8287,0.0073,-0.0039,0.017599999999999998
11.330283257081428,-0.0012000000000000001,-0.07039999999999999,-9.7937,0.0066,-0.004699999999999999,0.0184
11.340283507087678,0.001,-0.1441,-9.8357,0.0055,-0.004,0.018000000000000002
11.350283757093928,-0.0351,-0.0493,-9.847999999999999,0.0058,-0.0036999999999999997,0.019200000000000002
11.360284007100178,-0.052899999999999996,-0.028699999999999996,-9.8365,0.0060999999999999995,-0.0038,0.018000000000000002
11.370284257106428,-0.009399999999999999,-0.0886,-9.814599999999999,0.0053,-0.005,0.0185
11.380284507112679,0.0034999999999999996,-0.14809999999999998,-9.8322,0.0055,-0.0045000000000000005,0.0182
11.390284757118929,-0.0421,-0.061799999999999994,-9.8335,0.0057,-0.0038,0.018699999999999998
11.400285007125179,-0.0364,-0.0458,-9.8387,0.0063999999999999994,-0.0036,0.0179
11.410285257131429,-0.0103,-0.0786,-9.8043,0.008,-0.0046,0.0185
11.42028550713768,-0.0082,-0.11599999999999999,-9.8215,0.0073999999999999995,-0.0042,0.0183
11.43028575714393,-0.0268,-0.0878,-9.861799999999999,0.0072,-0.0034,0.0189
11.44028600715018,-0.026899999999999997,-0.0383,-9.833,0.009600000000000001,-0.0033,0.0186
11.45028625715643,-0.026099999999999998,-0.052,-9.801400000000001,0.0093,-0.0036,0.018799999999999997
11.46028650716268,-0.0184,-0.12390000000000001,-9.8161,0.0085,-0.0038,0.018699999999999998
11.47028675716893,-0.010199999999999999,-0.10439999999999999,-9.8627,0.0087,-0.0029,0.0191
11.48028700717518,-0.0368,-0.0162,-9.834,0.010199999999999999,-0.0031999999999999997,0.0189
11.49028725718143,-0.0273,-0.050699999999999995,-9.7941,0.009600000000000001,-0.004,0.018699999999999998
11.50028750718768,-0.00030000000000000003,-0.1273,-9.8059,0.010199999999999999,-0.0041,0.018699999999999998
11.51028775719393,-0.0135,-0.1134,-9.8287,0.0103,-0.003,0.0189
11.52028800720018,-0.0322,-0.0385,-9.8454,0.0117,-0.0026,0.0193
11.530288257206431,-0.0363,-0.037899999999999996,-9.8247,0.011,-0.0034999999999999996,0.0186
11.540288507212681,-0.0063999999999999994,-0.0887,-9.8336,0.010199999999999999,-0.0038,0.018799999999999997
11.550288757218931,0.004699999999999999,-0.1077,-9.826500000000001,0.0084,-0.0031999999999999997,0.018699999999999998
11.560289007225181,-0.0234,-0.010799999999999999,-9.8486,0.0092,-0.0024000000000000002,0.0197
11.570289257231432,-0.043199999999999995,-0.0055,-9.7998,0.0085,-0.0023,0.019200000000000002
11.580289507237682,-0.0014,-0.08,-9.8305,0.007899999999999999,-0.0028,0.0196
11.590289757243932,-0.0116,-0.1152,-9.843499999999999,0.0073999999999999995,-0.0024000000000000002,0.0197
11.600290007250182,-0.0043,-0.0197,-9.8399,0.0072,-0.0024000000000000002,0.0197
11.610290257256432,-0.05419999999999999,-0.048299999999999996,-9.8299,0.0083,-0.0024000000000000002,0.019
11.620290507262682,-0.0279,-0.101,-9.7849,0.0085,-0.003,0.0194
11.630290757268932,0.018000000000000002,-0.1163,-9.8307,0.008,-0.0023,0.0194
11.640291007275183,-0.031799999999999995,-0.026899999999999997,-9.8483,0.0082,-0.0018,0.0196
11.650291257281433,-0.028699999999999996,-0.0179,-9.855899999999998,0.0093,-0.0019,0.0193
11.660291507287683,-0.0481,-0.038099999999999995,-9.7872,0.0087,-0.0029,0.0197
11.670291757293933,0.0223,-0.1162,-9.8119,0.0083,-0.0025,0.0196
11.680292007300183,-0.0314,-0.058600000000000006,-9.8176,0.0089,-0.0021999999999999997,0.0202
11.690292257306433,-0.0276,-0.0156,-9.833,0.0106,-0.0015999999999999999,0.0197
11.700292507312684,-0.0224,-0.07479999999999999,-9.774099999999999,0.010199999999999999,-0.0021999999999999997,0.02
11.710292757318934,0.021599999999999998,-0.10070000000000001,-9.814,0.0103,-0.0019,0.019799999999999998
11.720293007325184,-0.0286,-0.0897,-9.840599999999998,0.0101,-0.0013,0.0199
11.730293257331434,-0.019799999999999998,-0.013999999999999999,-9.8383,0.0127,-0.0013,0.0199
11.740293507337684,-0.0364,-0.0514,-9.7775,0.0123,-0.002,0.0197
11.750293757343934,0.0115,-0.09759999999999999,-9.8096,0.0127,-0.002,0.0199
11.760294007350184,-0.040499999999999994,-0.0717,-9.8133,0.012,-0.0013,0.0201
11.770294257356435,-0.009899999999999999,0.0101,-9.8141,0.0134,-0.0010999999999999998,0.020399999999999998
11.780294507362685,-0.0193,-0.0138,-9.8136,0.0126,-0.0014,0.02
11.790294757368935,-0.0019,-0.0784,-9.8335,0.0113,-0.0015,0.02
11.800295007375185,-0.0496,-0.1008,-9.8086,0.0106,-0.0012000000000000001,0.0203
11.810295257381435,-0.0049,0.0162,-9.8239,0.0118,-0.0014,0.0207
11.820295507387685,-0.0072,-0.0135,-9.8262,0.0103,-0.0013,0.0201
11.830295757393936,-0.018000000000000002,-0.0732,-9.8269,0.010799999999999999,-0.0009,0.0203
11.840296007400186,-0.0166,-0.0833,-9.818399999999999,0.0093,-0.0005,0.0203
11.850296257406436,-0.015899999999999997,-0.0039,-9.822,0.0101,-0.0007,0.020900000000000002
11.860296507412686,-0.0308,0.0377,-9.8141,0.0093,-0.0007999999999999999,0.020399999999999998
11.870296757418936,-0.012199999999999999,-0.0378,-9.8164,0.0071,-0.0007999999999999999,0.0205
11.880297007425186,0.0031999999999999997,-0.0852,-9.8342,0.0052,-0.0005,0.0208
11.890297257431437,-0.027099999999999996,-0.0018,-9.826600000000001,0.0055,-0.00039999999999999996,0.0212
11.900297507437687,-0.026,0.010799999999999999,-9.804599999999999,0.005399999999999999,-0.0007,0.0206
11.910297757443937,-0.01,-0.089,-9.7861,0.004699999999999999,-0.0006000000000000001,0.020399999999999998
11.920298007450187,0.0184,-0.1144,-9.8189,0.0055,-0.00019999999999999998,0.0211
11.930298257456437,-0.0328,-0.0208,-9.818399999999999,0.006,9.999999999999999e-05,0.0212
11.940298507462687,-0.037599999999999995,0.0231,-9.8027,0.0063,-0.00030000000000000003,0.0208
11.950298757468937,-0.0119,-0.052,-9.7901,0.0057,-0.00039999999999999996,0.020900000000000002
11.960299007475188,0.0097,-0.0883,-9.811599999999999,0.005,0.00030000000000000003,0.0213
11.970299257481438,-0.0252,0.0021,-9.8409,0.004399999999999999,0.00030000000000000003,0.021699999999999997
11.980299507487688,-0.034,0.0138,-9.8064,0.006,0.00019999999999999998,0.0211
11.990299757493938,-0.006,-0.030299999999999997,-9.7791,0.0043,-0.0,0.0214
12.000300007500188,0.011,-0.0797,-9.8126,0.0036999999999999997,0.0006000000000000001,0.0215
12.010300257506438,-0.038,-0.014100000000000001,-9.8389,0.0019,0.001,0.021699999999999997
12.020300507512689,-0.0342,0.0264,-9.8078,0.0031999999999999997,0.0007999999999999999,0.021599999999999998
12.030300757518939,-0.0156,-0.0283,-9.7775,0.0021,-0.00039999999999999996,0.0214
12.040301007525189,0.0156,-0.0988,-9.8121,0.0007,0.00019999999999999998,0.0213
12.050301257531439,-0.0241,-0.08099999999999999,-9.8257,0.0007,0.001,0.0218
12.06030150753769,-0.0283,0.0168,-9.812,0.0026999999999999997,0.0007999999999999999,0.021699999999999997
12.07030175754394,-0.0262,-0.037,-9.7754,0.0017,9.999999999999999e-05,0.0215
12.08030200755019,-0.0026999999999999997,-0.0953,-9.797799999999999,0.0019,0.00030000000000000003,0.021599999999999998
12.09030225755644,-0.017,-0.0783,-9.8269,0.0009,0.0014,0.0219
12.10030250756269,-0.029500000000000002,-0.0212,-9.8005,0.0042,0.0010999999999999998,0.0223
12.11030275756894,-0.016,-0.0252,-9.7749,0.0049,0.00030000000000000003,0.0218
12.12030300757519,-0.013999999999999999,-0.0808,-9.7923,0.0052,0.0007,0.0221
12.13030325758144,-0.0049,-0.0936,-9.831900000000001,0.0049,0.0017,0.0221
12.14030350758769,-0.010799999999999999,0.0143,-9.8309,0.0063999999999999994,0.0017,0.0224
12.15030375759394,-0.044700000000000004,0.0181,-9.790799999999999,0.0048000000000000004,0.0010999999999999998,0.022
12.16030400760019,-0.0146,-0.047,-9.7904,0.0036999999999999997,0.0009,0.021699999999999997
12.17030425760644,-0.0012000000000000001,-0.0895,-9.8163,0.0026999999999999997,0.0015,0.0224
12.180304507612691,-0.0031999999999999997,0.0076,-9.8321,0.0031999999999999997,0.0019,0.0226
12.190304757618941,-0.0441,-0.0009,-9.8015,0.0023,0.0014,0.0221
12.200305007625191,-9.999999999999999e-05,-0.0741,-9.7838,0.0025,0.0007999999999999999,0.0222
12.210305257631441,-0.0063999999999999994,-0.0848,-9.7903,0.0024000000000000002,0.0014,0.0225
12.220305507637692,-0.0036,-0.0189,-9.808300000000001,0.0028,0.002,0.0229
12.230305757643942,-0.0505,-0.0015,-9.8234,0.004,0.0015,0.022699999999999998
12.240306007650192,-0.0067,-0.04,-9.7777,0.0031999999999999997,0.0009,0.0229
12.250306257656442,0.0026,-0.059699999999999996,-9.772,0.0029,0.0010999999999999998,0.0229
12.260306507662692,-0.0109,-0.0154,-9.8135,0.0018,0.0021999999999999997,0.0231
12.270306757668942,-0.055099999999999996,-0.0446,-9.8063,0.0034999999999999996,0.0021999999999999997,0.0228
12.280307007675193,-0.0036,-0.0485,-9.763399999999999,0.003,0.0018,0.023
12.290307257681443,0.0085,-0.0867,-9.804499999999999,0.003,0.0021,0.022699999999999998
12.300307507687693,-0.021599999999999998,-0.045,-9.8374,0.0031,0.003,0.0231
12.310307757693943,-0.0438,0.0024000000000000002,-9.8127,0.0043,0.0024000000000000002,0.0228
12.320308007700193,-0.0179,-0.006999999999999999,-9.754999999999999,0.0023,0.0014,0.0231
12.330308257706443,0.0221,-0.06999999999999999,-9.7986,0.0009,0.0017,0.0228
12.340308507712693,-0.0213,-0.041,-9.832799999999999,-0.0005,0.0028,0.0236
12.350308757718944,-0.0356,0.006,-9.8191,0.00030000000000000003,0.0026,0.0234
12.360309007725194,-0.019200000000000002,-0.0147,-9.774099999999999,-0.0007999999999999999,0.0015999999999999999,0.0234
12.370309257731444,0.006,-0.0796,-9.8158,-0.0017,0.002,0.0232
12.380309507737694,-0.05109999999999999,-0.0579,-9.7957,-0.0017,0.0025,0.0237
12.390309757743944,-0.0086,0.0186,-9.799199999999999,-0.0009,0.0025,0.0237
12.400310007750194,-0.028999999999999998,-0.0076,-9.785,-0.0023,0.002,0.023299999999999998
12.410310257756445,-0.0021,-0.0698,-9.7792,-0.0028,0.0021999999999999997,0.023299999999999998
12.420310507762695,-0.008,-0.0951,-9.821299999999999,-0.0039,0.0031999999999999997,0.0237
12.430310757768945,-0.0060999999999999995,0.0166,-9.833699999999999,-0.0023,0.0033,0.024
12.440311007775195,-0.0546,-0.006,-9.793399999999998,-0.0031,0.0028,0.023299999999999998
12.450311257781445,-0.0081,-0.0709,-9.7652,-0.004,0.0021,0.0237
12.460311507787695,-0.0036,-0.10790000000000001,-9.8058,-0.005,0.0028,0.0238
12.470311757793946,-0.0139,-0.0248,-9.7959,-0.0038,0.0034,0.0242
12.480312007800196,-0.0514,-0.024,-9.780899999999999,-0.0031,0.0031,0.0238
12.490312257806446,-0.0058,-0.0948,-9.7784,-0.0021,0.0024000000000000002,0.024
12.500312507812696,-0.0283,-0.12019999999999999,-9.7851,-0.0013,0.0024000000000000002,0.0238
12.510312757818946,-0.005399999999999999,-0.034,-9.8088,9.999999999999999e-05,0.0029,0.024499999999999997
12.520313007825196,-0.0664,-0.0123,-9.7754,0.0010999999999999998,0.0024000000000000002,0.0237
12.530313257831446,0.001,-0.0545,-9.7639,0.0006000000000000001,0.0021,0.0242
12.540313507837697,0.0019,-0.0825,-9.789299999999999,0.00019999999999999998,0.003,0.024
12.550313757843947,-0.0045000000000000005,0.0062,-9.839699999999999,-0.0007999999999999999,0.0042,0.0249
12.560314007850197,-0.0604,0.062,-9.8385,-0.0028,0.0043,0.024399999999999998
12.570314257856447,-0.0138,0.0265,-9.8342,-0.006999999999999999,0.0036999999999999997,0.0247
12.580314507862697,0.0087,0.012,-9.863900000000001,-0.0118,0.0043,0.025099999999999997
12.590314757868947,-0.023,0.0465,-9.8799,-0.0157,0.0049,0.0254
12.600315007875198,-0.0628,0.0619,-9.845099999999999,-0.018000000000000002,0.0048000000000000004,0.0257
12.610315257881448,-0.030299999999999997,0.0359,-9.794,-0.0225,0.004,0.0254
12.620315507887698,0.0248,-0.0010999999999999998,-9.851600000000001,-0.0278,0.0048000000000000004,0.025799999999999997
12.630315757893948,-0.0351,0.086,-9.8956,-0.032299999999999995,0.0058,0.0268
12.640316007900198,-0.0563,0.13699999999999998,-9.8882,-0.0366,0.0059,0.026600000000000002
12.650316257906448,-0.0313,0.11019999999999999,-9.8444,-0.0439,0.004699999999999999,0.026899999999999997
12.660316507912698,-0.003,0.007899999999999999,-9.8658,-0.05109999999999999,0.0053,0.027099999999999996
12.670316757918949,-0.0232,0.0221,-9.918299999999999,-0.0561,0.0066,0.0281
12.680317007925199,-0.0485,0.11130000000000001,-9.8805,-0.059199999999999996,0.0076,0.0284
12.690317257931449,-0.0184,0.0628,-9.849499999999999,-0.0663,0.007899999999999999,0.028499999999999998
12.700317507937699,-0.0264,0.026099999999999998,-9.8802,-0.0727,0.0083,0.0291
12.71031775794395,-0.050600000000000006,0.057999999999999996,-9.925799999999999,-0.07919999999999999,0.009600000000000001,0.029999999999999995
12.7203180079502,-0.0456,0.147,-9.9116,-0.0854,0.0098,0.0305
12.73031825795645,-0.021599999999999998,0.0822,-9.8786,-0.09269999999999999,0.0095,0.030299999999999997
12.7403185079627,-0.0276,0.0118,-9.9041,-0.1016,0.0103,0.031100000000000003
12.75031875796895,-0.0682,0.006,-9.9368,-0.1083,0.0115,0.0322
12.7603190079752,-0.0078,0.1245,-9.9384,-0.11299999999999999,0.012,0.0328
12.77031925798145,-0.058699999999999995,0.0938,-9.9015,-0.12049999999999998,0.0121,0.0329
12.7803195079877,-0.0399,-0.0169,-9.9116,-0.1293,0.0127,0.0334
12.79031975799395,-0.0365,-0.020900000000000002,-9.936200000000001,-0.1351,0.013999999999999999,0.034999999999999996
12.8003200080002,-0.0338,0.0611,-9.9422,-0.1377,0.014899999999999998,0.0362
12.81032025800645,-0.0812,0.07619999999999999,-9.9024,-0.14009999999999997,0.0146,0.0369
12.820320508012701,-0.051699999999999996,-0.053700000000000005,-9.885399999999999,-0.1444,0.0147,0.0368
12.830320758018951,-0.0338,-0.06509999999999999,-9.8997,-0.1436,0.0156,0.0395
12.840321008025201,-0.053200000000000004,0.0883,-9.9177,-0.14300000000000002,0.0171,0.0411
12.850321258031451,-0.0881,0.1011,-9.8932,-0.14350000000000002,0.0179,0.041800000000000004
12.860321508037702,-0.0671,-0.0315,-9.8987,-0.14679999999999999,0.018000000000000002,0.042
12.870321758043952,-0.0561,-0.0546,-9.9372,-0.1489,0.0186,0.043699999999999996
12.880322008050202,-0.05419999999999999,0.042499999999999996,-9.9398,-0.14959999999999998,0.02,0.0465
12.890322258056452,-0.12069999999999999,0.1325,-9.9147,-0.1492,0.021599999999999998,0.048999999999999995
12.900322508062702,-0.08729999999999999,0.068,-9.8202,-0.1563,0.0213,0.049499999999999995
12.910322758068952,-0.0984,-0.0085,-9.7968,-0.1631,0.0203,0.050699999999999995
12.920323008075203,-0.1309,0.027099999999999996,-9.867199999999999,-0.1646,0.0203,0.053399999999999996
12.930323258081453,-0.0712,0.1093,-9.8942,-0.1648,0.022699999999999998,0.055
12.940323508087703,-0.0672,-0.0098,-9.9001,-0.1678,0.0248,0.0554
12.950323758093953,-0.1621,-0.0603,-9.837,-0.1687,0.024499999999999997,0.0576
12.960324008100203,-0.1367,-0.004699999999999999,-9.8906,-0.1701,0.0238,0.061200000000000004
12.970324258106453,-0.09779999999999998,0.0807,-9.8832,-0.16999999999999998,0.0246,0.06449999999999999
12.980324508112703,-0.11449999999999999,-0.0068,-9.8444,-0.1708,0.026,0.0659
12.990324758118954,-0.1433,-0.043399999999999994,-9.7852,-0.17459999999999998,0.0262,0.0677
13.000325008125204,-0.1784,-0.056400000000000006,-9.8067,-0.1779,0.0263,0.0707
13.010325258131454,-0.1316,0.0143,-9.8109,-0.1769,0.0273,0.0733
13.020325508137704,-0.1316,-0.1036,-9.7986,-0.1779,0.028200000000000003,0.0739
13.030325758143954,-0.1569,-0.14809999999999998,-9.7896,-0.1786,0.0276,0.07629999999999999
13.040326008150204,-0.1939,-0.199,-9.782399999999999,-0.1789,0.027099999999999996,0.0787
13.050326258156455,-0.10039999999999999,-0.1238,-9.7935,-0.1745,0.0278,0.0814
13.060326508162705,-0.1949,-0.1206,-9.766,-0.17179999999999998,0.028999999999999998,0.0835
13.070326758168955,-0.1874,-0.1975,-9.718300000000001,-0.1711,0.028999999999999998,0.08639999999999999
13.080327008175205,-0.1882,-0.2556,-9.7363,-0.1699,0.0289,0.0891
13.090327258181455,-0.1479,-0.1714,-9.7838,-0.1669,0.029500000000000002,0.0923
13.100327508187705,-0.20140000000000002,-0.1552,-9.736,-0.1634,0.0302,0.0949
13.110327758193955,-0.2,-0.3255,-9.6595,-0.1606,0.029799999999999997,0.09749999999999999
13.120328008200206,-0.1951,-0.39249999999999996,-9.640799999999999,-0.1564,0.029300000000000003,0.0999
13.130328258206456,-0.19599999999999998,-0.3435,-9.7134,-0.15139999999999998,0.0299,0.10189999999999999
13.140328508212706,-0.19629999999999997,-0.293,-9.702399999999999,-0.1438,0.0301,0.1041
13.150328758218956,-0.2265,-0.3967,-9.6302,-0.1386,0.029300000000000003,0.10640000000000001
13.160329008225206,-0.2052,-0.48190000000000005,-9.6001,-0.1326,0.028699999999999996,0.1088
13.170329258231456,-0.23370000000000002,-0.46629999999999994,-9.6631,-0.1242,0.029500000000000002,0.11180000000000001
13.180329508237707,-0.22019999999999998,-0.3221,-9.6789,-0.11429999999999998,0.0301,0.11499999999999999
13.190329758243957,-0.2412,-0.3922,-9.6392,-0.1085,0.0294,0.11800000000000001
13.200330008250207,-0.2515,-0.46769999999999995,-9.615,-0.1028,0.028699999999999996,0.1208
13.210330258256457,-0.2562,-0.4681,-9.6382,-0.0979,0.0289,0.1237
13.220330508262707,-0.2208,-0.3347,-9.6523,-0.0907,0.0294,0.1275
13.230330758268957,-0.3027,-0.4281,-9.6108,-0.0846,0.028999999999999998,0.1304
13.240331008275207,-0.2578,-0.5068999999999999,-9.5741,-0.0791,0.0279,0.13290000000000002
13.250331258281458,-0.2804,-0.5345,-9.6015,-0.0735,0.0276,0.1348
13.260331508287708,-0.24949999999999997,-0.4098,-9.6014,-0.0687,0.0272,0.1371
13.270331758293958,-0.3428,-0.45399999999999996,-9.5358,-0.064,0.026,0.1399
13.280332008300208,-0.2882,-0.5156,-9.4961,-0.061700000000000005,0.024499999999999997,0.1427
13.290332258306458,-0.26480000000000004,-0.5335,-9.5411,-0.0602,0.024,0.1454
13.300332508312708,-0.267,-0.3942,-9.5954,-0.0581,0.0246,0.1487
13.310332758318959,-0.3417,-0.40679999999999994,-9.5719,-0.0555,0.0241,0.15209999999999999
13.320333008325209,-0.2818,-0.48250000000000004,-9.4946,-0.0553,0.0225,0.1553
13.330333258331459,-0.3033,-0.5464,-9.4924,-0.0552,0.021699999999999997,0.1581
13.340333508337709,-0.317,-0.5115,-9.5231,-0.0561,0.021699999999999997,0.1609
13.35033375834396,-0.2842,-0.49379999999999996,-9.488299999999999,-0.05330000000000001,0.0206,0.1636
13.36033400835021,-0.30569999999999997,-0.5603999999999999,-9.406699999999999,-0.0546,0.0185,0.16570000000000001
13.37033425835646,-0.3029,-0.6536,-9.3773,-0.0571,0.0168,0.1675
13.38033450836271,-0.3283,-0.6697,-9.3812,-0.0581,0.0164,0.16999999999999998
13.39033475836896,-0.2762,-0.5647,-9.4051,-0.0541,0.015300000000000001,0.17329999999999998
13.40033500837521,-0.34859999999999997,-0.632,-9.378699999999998,-0.0508,0.0134,0.176
13.41033525838146,-0.32989999999999997,-0.7092,-9.3932,-0.0482,0.0125,0.17880000000000001
13.42033550838771,-0.34450000000000003,-0.7059,-9.447700000000001,-0.046,0.012,0.1814
13.43033575839396,-0.2693,-0.5158,-9.472800000000001,-0.0402,0.0112,0.185
13.44033600840021,-0.3824,-0.605,-9.4016,-0.0388,0.0087,0.18810000000000002
13.45033625840646,-0.3453,-0.696,-9.3322,-0.0422,0.006999999999999999,0.191
13.460336508412711,-0.3368,-0.7815000000000001,-9.3392,-0.043699999999999996,0.006,0.19319999999999998
13.470336758418961,-0.2935,-0.6554,-9.3922,-0.0415,0.0059,0.1955
13.480337008425211,-0.365,-0.6407,-9.3315,-0.0388,0.0036999999999999997,0.1976
13.490337258431461,-0.3497,-0.7589,-9.3458,-0.0402,0.002,0.1994
